	rep	session	run	block	trial	data_split	trial_type	rating_type	rating	rating_intensity	rating_RT
id-1296_AU1-33_AU14-66_AU15-66_AU5-100	1	1	1	1	1	train	id-1296_AU1-33_AU14-66_AU15-66_AU5-100	valence	-0.7309932172525271		4.760736781512605
id-1296_AU1-33_AU14-66_AU15-66_AU5-100	1	1	1	1	1	train	id-1296_AU1-33_AU14-66_AU15-66_AU5-100	arousal	0.23913532757703485		4.760736781512605
id-1295_AU1-33_AU16Open-100_AU22-66_AU4-33	1	1	1	1	2	test_extra	id-1295_AU1-33_AU16Open-100_AU22-66_AU4-33	valence	-0.6603395977411303		1.177083053487877
id-1295_AU1-33_AU16Open-100_AU22-66_AU4-33	1	1	1	1	2	test_extra	id-1295_AU1-33_AU16Open-100_AU22-66_AU4-33	arousal	0.20652596472562101		1.177083053487877
id-1290_AU1-66_AU22-33_AU25-66	1	1	1	1	3	test_extra	id-1290_AU1-66_AU22-33_AU25-66	valence	-0.0027174469042844872		1.710428300058993
id-1290_AU1-66_AU22-33_AU25-66	1	1	1	1	3	test_extra	id-1290_AU1-66_AU22-33_AU25-66	arousal	0.0		1.710428300058993
id-1294_AU11-66_AU43-33_AU5-33	1	1	1	1	4	test_extra	id-1294_AU11-66_AU43-33_AU5-33	valence	-0.4538136330155093		3.418985094665913
id-1294_AU11-66_AU43-33_AU5-33	1	1	1	1	4	test_extra	id-1294_AU11-66_AU43-33_AU5-33	arousal	0.09782808855424154		3.418985094665913
id-1296_AU22-66_AU24-66_AU25-66_AU5-66_AU6-100	1	1	1	1	5	test_extra	id-1296_AU22-66_AU24-66_AU25-66_AU5-66_AU6-100	valence	-0.5543591684740353		1.1102977776463376
id-1296_AU22-66_AU24-66_AU25-66_AU5-66_AU6-100	1	1	1	1	5	test_extra	id-1296_AU22-66_AU24-66_AU25-66_AU5-66_AU6-100	arousal	0.8478434341367599		1.1102977776463376
id-1290_AU22-33	1	1	1	1	6	train	id-1290_AU22-33	valence	-0.013587234521422437		1.1937059460451565
id-1290_AU22-33	1	1	1	1	6	train	id-1290_AU22-33	arousal	0.0054348938085689745		1.1937059460451565
id-1302_AU1-100_AU11-66_AU13-33_AU24-33	1	1	1	1	7	test_extra	id-1302_AU1-100_AU11-66_AU13-33_AU24-33	valence	-0.1277200045013709		4.994247233718852
id-1302_AU1-100_AU11-66_AU13-33_AU24-33	1	1	1	1	7	test_extra	id-1302_AU1-100_AU11-66_AU13-33_AU24-33	arousal	0.4674008675369317		4.994247233718852
id-1335_AU43-66_AU5-66	1	1	1	1	8	test	id-1335_AU43-66_AU5-66	valence	0.201091070917052		2.7523403628474625
id-1335_AU43-66_AU5-66	1	1	1	1	8	test	id-1335_AU43-66_AU5-66	arousal	-0.8451259872324756		2.7523403628474625
id-1358_AU1-66_AU13-100_AU24-33_AU26-33	1	1	1	1	9	test_extra	id-1358_AU1-66_AU13-100_AU24-33_AU26-33	valence	-0.7771898146253633		2.4110553449445438
id-1358_AU1-66_AU13-100_AU24-33_AU26-33	1	1	1	1	9	test_extra	id-1358_AU1-66_AU13-100_AU24-33_AU26-33	arousal	0.6576221508368458		2.4110553449445438
id-1264_AU14-66_AU15-66_AU20-66_AU6-33	1	1	1	1	10	test_extra	id-1264_AU14-66_AU15-66_AU20-66_AU6-33	valence	-0.4375089515898024		2.7438518781928
id-1264_AU14-66_AU15-66_AU20-66_AU6-33	1	1	1	1	10	test_extra	id-1264_AU14-66_AU15-66_AU20-66_AU6-33	arousal	0.44566129230265583		2.7438518781928
id-1311_AU10Open-66_AU16Open-66_AU25-100_AU26-33	1	1	1	1	11	test_extra	id-1311_AU10Open-66_AU16Open-66_AU25-100_AU26-33	valence	-0.9130621598395876		2.1941104327070207
id-1311_AU10Open-66_AU16Open-66_AU25-100_AU26-33	1	1	1	1	11	test_extra	id-1311_AU10Open-66_AU16Open-66_AU25-100_AU26-33	arousal	0.09239319474567256		2.1941104327070207
id-1345_AU10Open-33_AU27i-100	1	1	1	1	12	train	id-1345_AU10Open-33_AU27i-100	valence	-0.8858876907967428		1.161682978447061
id-1345_AU10Open-33_AU27i-100	1	1	1	1	12	train	id-1345_AU10Open-33_AU27i-100	arousal	0.5271846994311905		1.161682978447061
id-1269_AU10Open-66_AU20-66_AU26-66_AU43-66	1	1	1	1	13	test	id-1269_AU10Open-66_AU20-66_AU26-66_AU43-66	valence	-0.9348017350738634		1.210405509953489
id-1269_AU10Open-66_AU20-66_AU26-66_AU43-66	1	1	1	1	13	test	id-1269_AU10Open-66_AU20-66_AU26-66_AU43-66	arousal	0.7391455579653804		1.210405509953489
id-1339_AU10Open-100_AU12-33_AU20-100_AU27i-33	1	1	1	1	14	test	id-1339_AU10Open-100_AU12-33_AU20-100_AU27i-33	valence	0.5135974649097681		2.2689295984928317
id-1339_AU10Open-100_AU12-33_AU20-100_AU27i-33	1	1	1	1	14	test	id-1339_AU10Open-100_AU12-33_AU20-100_AU27i-33	arousal	0.1820689425870606		2.2689295984928317
id-1367_AU14-100_AU4-66_AU5-100	1	1	1	1	15	test_extra	id-1367_AU14-100_AU4-66_AU5-100	valence	0.0		1.9106111642558967
id-1367_AU14-100_AU4-66_AU5-100	1	1	1	1	15	test_extra	id-1367_AU14-100_AU4-66_AU5-100	arousal	0.5924034251340181		1.9106111642558967
id-1370_AU17-66_AU20-66_AU26-66_AU5-100	1	1	1	1	16	test_extra	id-1370_AU17-66_AU20-66_AU26-66_AU5-100	valence	-0.29348426566272456		1.23543116014298
id-1370_AU17-66_AU20-66_AU26-66_AU5-100	1	1	1	1	16	test_extra	id-1370_AU17-66_AU20-66_AU26-66_AU5-100	arousal	0.6712093853582682		1.23543116014298
id-1269_AU10Open-33	1	1	1	1	17	test_extra	id-1269_AU10Open-33	valence	-0.8342561996153375		1.3188100485349423
id-1269_AU10Open-33	1	1	1	1	17	test_extra	id-1269_AU10Open-33	arousal	-0.23370043376846586		1.3188100485349423
id-1358_AU16Open-66_AU43-66	1	1	1	1	18	test_extra	id-1358_AU16Open-66_AU43-66	valence	-0.15761192044850025		1.035320741320902
id-1358_AU16Open-66_AU43-66	1	1	1	1	18	test_extra	id-1358_AU16Open-66_AU43-66	arousal	-0.5733812968040267		1.035320741320902
id-1367_AU25-66_AU4-66_AU6-33	1	1	1	1	19	test	id-1367_AU25-66_AU4-66_AU6-33	valence	-0.06521872570282768		4.344101935468643
id-1367_AU25-66_AU4-66_AU6-33	1	1	1	1	19	test	id-1367_AU25-66_AU4-66_AU6-33	arousal	0.3559855444612677		4.344101935468643
id-1318_AU1-33_AU16Open-33_AU20-100_AU43-66	1	1	1	1	20	test_extra	id-1318_AU1-33_AU16Open-33_AU20-100_AU43-66	valence	-0.0027174469042844872		2.0022726717033947
id-1318_AU1-33_AU16Open-33_AU20-100_AU43-66	1	1	1	1	20	test_extra	id-1318_AU1-33_AU16Open-33_AU20-100_AU43-66	arousal	0.19022128329991408		2.0022726717033947
id-1310_AU12-33_AU14-33_AU22-100_AU6-100	1	1	1	1	21	test	id-1310_AU12-33_AU14-33_AU22-100_AU6-100	valence	-0.13587234521422434		3.310593234025873
id-1310_AU12-33_AU14-33_AU22-100_AU6-100	1	1	1	1	21	test	id-1310_AU12-33_AU14-33_AU22-100_AU6-100	arousal	0.5190323587183371		3.310593234025873
id-1377_AU14-33_AU5-100_AU6-66	1	1	1	1	22	train	id-1377_AU14-33_AU5-100_AU6-66	valence	0.057066384989974225		2.343848074810012
id-1377_AU14-33_AU5-100_AU6-66	1	1	1	1	22	train	id-1377_AU14-33_AU5-100_AU6-66	arousal	-0.6875140667839752		2.343848074810012
id-1361_AU15-33_AU16Open-100_AU27i-100_AU6-33	1	1	1	1	23	train	id-1361_AU15-33_AU16Open-100_AU27i-100_AU6-33	valence	-0.1684817080656382		2.193739753884074
id-1361_AU15-33_AU16Open-100_AU27i-100_AU6-33	1	1	1	1	23	train	id-1361_AU15-33_AU16Open-100_AU27i-100_AU6-33	arousal	0.1250025575970864		2.193739753884074
id-1260_AU12-100_AU4-66_AU43-66	1	1	1	1	24	test_extra	id-1260_AU12-100_AU4-66_AU43-66	valence	-0.100545535458526		4.6945440484469145
id-1260_AU12-100_AU4-66_AU43-66	1	1	1	1	24	test_extra	id-1260_AU12-100_AU4-66_AU43-66	arousal	-0.4538136330155093		4.6945440484469145
id-1270_AU11-33_AU17-66	1	1	1	1	25	test_extra	id-1270_AU11-33_AU17-66	valence	0.15489447354421576		1.3603064559993072
id-1270_AU11-33_AU17-66	1	1	1	1	25	test_extra	id-1270_AU11-33_AU17-66	arousal	-0.5434893808568974		1.3603064559993072
id-1280_AU1-66_AU17-100_AU26-33	1	1	1	1	26	test_extra	id-1280_AU1-66_AU17-100_AU26-33	valence	-0.5462068277611818		2.952331548662187
id-1280_AU1-66_AU17-100_AU26-33	1	1	1	1	26	test_extra	id-1280_AU1-66_AU17-100_AU26-33	arousal	-0.4619659737283627		2.952331548662187
id-1323_AU26-33	1	1	1	1	27	train	id-1323_AU26-33	valence	0.0		2.8523113545143133
id-1323_AU26-33	1	1	1	1	27	train	id-1323_AU26-33	arousal	-0.9429540757867167		2.8523113545143133
id-1347_AU13-100_AU14-66_AU17-100_AU27i-66_AU7-100	1	1	1	1	28	test	id-1347_AU13-100_AU14-66_AU17-100_AU27i-66_AU7-100	valence	-0.6603395977411303		8.361401890400884
id-1347_AU13-100_AU14-66_AU17-100_AU27i-66_AU7-100	1	1	1	1	28	test	id-1347_AU13-100_AU14-66_AU17-100_AU27i-66_AU7-100	arousal	0.5570766153783199		8.361401890400884
id-1363_AU1-33_AU15-100_AU2-66_AU22-66_AU5-100	1	1	1	1	29	test	id-1363_AU1-33_AU15-100_AU2-66_AU22-66_AU5-100	valence	0.22283064615132792		2.8190522877503104
id-1363_AU1-33_AU15-100_AU2-66_AU22-66_AU5-100	1	1	1	1	29	test	id-1363_AU1-33_AU15-100_AU2-66_AU22-66_AU5-100	arousal	-0.4782706551540697		2.8190522877503104
id-1380_AU5-66	1	1	1	1	30	train	id-1380_AU5-66	valence	-0.5924034251340181		3.2272825650252344
id-1380_AU5-66	1	1	1	1	30	train	id-1380_AU5-66	arousal	-0.09239319474567256		3.2272825650252344
id-1354_AU11-100_AU15-100_AU4-66_AU9-66	1	1	1	1	31	test_extra	id-1354_AU11-100_AU15-100_AU4-66_AU9-66	valence	-0.7364281110610958		1.6853223562502535
id-1354_AU11-100_AU15-100_AU4-66_AU9-66	1	1	1	1	31	test_extra	id-1354_AU11-100_AU15-100_AU4-66_AU9-66	arousal	0.5815336375168803		1.6853223562502535
id-1318_AU2-66_AU22-100_AU5-33_AU7-66	1	1	1	1	32	train	id-1318_AU2-66_AU22-100_AU5-33_AU7-66	valence	-0.21467830543847446		1.5851533472323354
id-1318_AU2-66_AU22-100_AU5-33_AU7-66	1	1	1	1	32	train	id-1318_AU2-66_AU22-100_AU5-33_AU7-66	arousal	0.2608749028113107		1.5851533472323354
id-1311_AU25-33	1	1	1	1	33	train	id-1311_AU25-33	valence	0.4538136330155093		1.5520047596601216
id-1311_AU25-33	1	1	1	1	33	train	id-1311_AU25-33	arousal	-0.9293668412652946		1.5520047596601216
id-1347_AU1-66_AU26-33	1	1	1	1	34	test_extra	id-1347_AU1-66_AU26-33	valence	0.0		6.044362225653456
id-1347_AU1-66_AU26-33	1	1	1	1	34	test_extra	id-1347_AU1-66_AU26-33	arousal	0.3750076727912592		6.044362225653456
id-1269_AU14-33_AU25-66	1	1	1	1	35	test_extra	id-1269_AU14-33_AU25-66	valence	0.4266391639726645		1.7438213907644242
id-1269_AU14-33_AU25-66	1	1	1	1	35	test_extra	id-1269_AU14-33_AU25-66	arousal	-0.1711991549699227		1.7438213907644242
id-1335_AU13-33_AU4-66_AU9-33	1	1	1	1	36	train	id-1335_AU13-33_AU4-66_AU9-33	valence	-0.5326195932397594		1.1021177895345318
id-1335_AU13-33_AU4-66_AU9-33	1	1	1	1	36	train	id-1335_AU13-33_AU4-66_AU9-33	arousal	0.16032936735278475		1.1021177895345318
id-1311_AU16Open-100_AU43-100_AU6-66_AU9-100	1	1	1	2	1	test	id-1311_AU16Open-100_AU43-100_AU6-66_AU9-100	emotion	Walging	0.7864929802401122	2.9867017463257066
id-1341_AU10Open-66_AU11-33_AU25-33_AU9-100	1	1	1	2	2	train	id-1341_AU10Open-66_AU11-33_AU25-33_AU9-100	emotion	Walging	0.7998756497850471	0.9614853233233588
id-1323_AU22-33_AU5-100_AU9-66	1	1	1	2	3	test_extra	id-1323_AU22-33_AU5-100_AU9-66	emotion	Boos	0.6692134538286215	2.4614936243542616
id-1294_AU12-33_AU13-33_AU15-100_AU22-33	1	1	1	2	4	train	id-1294_AU12-33_AU13-33_AU15-100_AU22-33	emotion	Blij	0.3583502014946704	1.1530369251031516
id-1302_AU12-66_AU43-33	1	1	1	2	5	test_extra	id-1302_AU12-66_AU43-33	emotion	Blij	0.6386283956723863	1.2194952912013832
id-1367_AU11-33_AU13-33_AU14-66_AU5-33	1	1	1	2	6	test_extra	id-1367_AU11-33_AU13-33_AU14-66_AU5-33	emotion	Geen van allen	0.0	2.0779693320637307
id-1280_AU11-33_AU17-66_AU2-66_AU26-66_AU9-66	1	1	1	2	7	test	id-1280_AU11-33_AU17-66_AU2-66_AU26-66_AU9-66	emotion	Bang	0.5877778443385154	7.345495905175994
id-1270_AU12-100_AU13-100_AU14-66_AU2-100_AU25-66	1	1	1	2	8	train	id-1270_AU12-100_AU13-100_AU14-66_AU2-100_AU25-66	emotion	Blij	0.7312156279848047	1.0446631758059084
id-1289_AU1-66_AU12-100_AU27i-100	1	1	1	2	9	train	id-1289_AU1-66_AU12-100_AU27i-100	emotion	Blij	0.8120285627504137	0.8362529321511829
id-1339_AU11-100_AU20-100_AU4-33	1	1	1	2	10	train	id-1339_AU11-100_AU20-100_AU4-33	emotion	Bang	0.3561727934136239	6.6203482147193435
id-1279_AU1-33_AU10Open-33_AU24-33	1	1	1	2	11	test_extra	id-1279_AU1-33_AU10Open-33_AU24-33	emotion	Bang	0.6648189244133073	1.1449586623675714
id-1341_AU16Open-33_AU27i-100	1	1	1	2	12	train	id-1341_AU16Open-33_AU27i-100	emotion	Bang	0.597625574553203	4.011951071603107
id-1345_AU12-33_AU27i-66_AU7-100_AU9-66	1	1	1	2	13	test_extra	id-1345_AU12-33_AU27i-66_AU7-100_AU9-66	emotion	Walging	0.7470667451753198	1.0861481127521984
id-1273_AU11-33_AU14-33_AU26-100	1	1	1	2	14	test_extra	id-1273_AU11-33_AU14-33_AU26-100	emotion	Blij	0.6821599170958761	1.2779568956084404
id-1366_AU15-66_AU22-66_AU24-33_AU5-100	1	1	1	2	15	train	id-1366_AU15-66_AU22-66_AU24-33_AU5-100	emotion	Verdrietig	0.4049914561885145	0.8196701864035276
id-1294_AU11-33_AU14-33_AU17-33_AU4-100	1	1	1	2	16	test_extra	id-1294_AU11-33_AU14-33_AU17-33_AU4-100	emotion	Blij	0.1890493935994655	1.1945164286480576
id-1291_AU10Open-33_AU11-100_AU15-100	1	1	1	2	17	test_extra	id-1291_AU10Open-33_AU11-100_AU15-100	emotion	Walging	0.8910731426903559	2.553376392044811
id-1356_AU14-33_AU15-33_AU2-66_AU5-66	1	1	1	2	18	test_extra	id-1356_AU14-33_AU15-33_AU2-66_AU5-66	emotion	Geen van allen	0.0	4.461787933680171
id-1335_AU11-66_AU17-66_AU25-66_AU6-33	1	1	1	2	19	train	id-1335_AU11-66_AU17-66_AU25-66_AU6-33	emotion	Geen van allen	0.0	6.103533190998862
id-1323_AU11-33_AU16Open-33_AU2-33_AU27i-100	1	1	1	2	20	train	id-1323_AU11-33_AU16Open-33_AU2-33_AU27i-100	emotion	Bang	0.3402432126503533	1.7865520862615083
id-1296_AU16Open-100_AU17-100_AU27i-33	1	1	1	2	21	train	id-1296_AU16Open-100_AU17-100_AU27i-33	emotion	Bang	0.8421888260004741	1.2115054721925844
id-1285_AU16Open-100	1	1	1	2	22	test_extra	id-1285_AU16Open-100	emotion	Bang	0.12476464525264935	0.786320562925539
id-1289_AU17-33_AU26-66	1	1	1	2	23	test	id-1289_AU17-33_AU26-66	emotion	Geen van allen	0.0	4.428626668168364
id-1270_AU22-66_AU26-100	1	1	1	2	24	test_extra	id-1270_AU22-66_AU26-100	emotion	Verrassing	0.2379108444006176	3.6033383431313264
id-1309_AU12-66_AU16Open-33_AU2-33_AU24-100_AU26-100	1	1	1	2	25	test_extra	id-1309_AU12-66_AU16Open-33_AU2-33_AU24-100_AU26-100	emotion	Blij	0.4024539519166774	2.3449706762257847
id-1291_AU12-33_AU17-100_AU5-66	1	1	1	2	26	test_extra	id-1291_AU12-33_AU17-100_AU5-66	emotion	Blij	0.33050318128538153	2.4448891449974326
id-1342_AU1-100_AU14-100_AU15-66_AU5-100_AU7-100	1	1	1	2	27	test	id-1342_AU1-100_AU14-100_AU15-66_AU5-100_AU7-100	emotion	Geen van allen	0.0	2.2365133128951133
id-1378_AU15-100_AU16Open-66_AU26-66_AU7-100	1	1	1	2	28	test_extra	id-1378_AU15-100_AU16Open-66_AU26-66_AU7-100	emotion	Verdrietig	0.3072456941894097	0.7863051682834339
id-1279_AU12-100	1	1	1	2	29	train	id-1279_AU12-100	emotion	Blij	0.5752234347570505	0.6612759260115126
id-1285_AU16Open-33_AU5-33	1	1	1	2	30	test	id-1285_AU16Open-33_AU5-33	emotion	Verrassing	0.7623338253346317	2.836529733844145
id-1339_AU10Open-66_AU20-66_AU27i-100	1	1	1	2	31	train	id-1339_AU10Open-66_AU20-66_AU27i-100	emotion	Boos	0.6420286188488769	3.8285586298879934
id-1358_AU11-100_AU12-100_AU14-100_AU16Open-66_AU6-100	1	1	1	2	32	test	id-1358_AU11-100_AU12-100_AU14-100_AU16Open-66_AU6-100	emotion	Geen van allen	0.0	1.8034508749442464
id-1366_AU12-100	1	1	1	2	33	test_extra	id-1366_AU12-100	emotion	Blij	0.4787867223840525	0.8031058538563229
id-1295_AU1-100_AU16Open-100_AU24-33_AU4-100	1	1	1	2	34	test_extra	id-1295_AU1-100_AU16Open-100_AU24-33_AU4-100	emotion	Verdrietig	0.22749143744732625	5.003522052522385
id-1354_AU20-100_AU43-66_AU9-33	1	1	1	2	35	train	id-1354_AU20-100_AU43-66_AU9-33	emotion	Walging	0.5899795191593773	1.3114003962164134
id-1269_AU15-66_AU16Open-66_AU26-33_AU27i-100	1	1	1	2	36	test	id-1269_AU15-66_AU16Open-66_AU26-33_AU27i-100	emotion	Boos	0.6001726097300444	5.6118645597525765
id-1360_AU1-66_AU14-66_AU15-66	1	1	1	3	1	test_extra	id-1360_AU1-66_AU14-66_AU15-66	emotion	Verrassing	0.4970287511316143	3.2116047827221337
id-1266_AU1-33_AU10Open-100_AU11-66_AU12-100_AU14-33	1	1	1	3	2	test_extra	id-1266_AU1-33_AU10Open-100_AU11-66_AU12-100_AU14-33	emotion	Blij	0.2532108804029352	1.0029871641891075
id-1295_AU1-33_AU14-33_AU6-66	1	1	1	3	3	train	id-1295_AU1-33_AU14-33_AU6-66	emotion	Geen van allen	0.0	2.5451517292858625
id-1358_AU14-100	1	1	1	3	4	train	id-1358_AU14-100	emotion	Blij	0.07851881931271952	0.7862816235374339
id-1302_AU15-66_AU24-100_AU25-100_AU43-33	1	1	1	3	5	test	id-1302_AU15-66_AU24-100_AU25-100_AU43-33	emotion	Geen van allen	0.0	7.12893284042184
id-1266_AU14-66_AU16Open-66_AU27i-33_AU43-66	1	1	1	3	6	train	id-1266_AU14-66_AU16Open-66_AU27i-33_AU43-66	emotion	Bang	0.07637777995284474	3.1535395148748653
id-1285_AU26-100_AU4-66_AU7-100_AU9-33	1	1	1	3	7	train	id-1285_AU26-100_AU4-66_AU7-100_AU9-33	emotion	Walging	0.6480219714683533	0.7113954457818181
id-1269_AU14-100_AU20-100_AU5-66	1	1	1	3	8	test_extra	id-1269_AU14-100_AU20-100_AU5-66	emotion	Bang	0.8860056858236651	3.2867052780366066
id-1360_AU24-66_AU26-33_AU5-100_AU7-33	1	1	1	3	9	train	id-1360_AU24-66_AU26-33_AU5-100_AU7-33	emotion	Bang	0.8466771016009974	1.1030659183452372
id-1345_AU12-66_AU20-100	1	1	1	3	10	train	id-1345_AU12-66_AU20-100	emotion	Bang	0.06647838286878616	1.4197484877786335
id-1297_AU2-66_AU22-66	1	1	1	3	11	test_extra	id-1297_AU2-66_AU22-66	emotion	Verrassing	0.3110585583144596	1.4531186374479148
id-1293_AU2-66_AU22-33_AU26-66_AU9-66	1	1	1	3	12	test_extra	id-1293_AU2-66_AU22-33_AU26-66_AU9-66	emotion	Bang	0.4898417665561489	0.994617610685964
id-1380_AU1-66_AU14-100_AU17-66_AU9-33	1	1	1	3	13	train	id-1380_AU1-66_AU14-100_AU17-66_AU9-33	emotion	Boos	0.4092655951212694	0.8781565429799231
id-1273_AU1-33_AU13-33_AU26-33	1	1	1	3	14	test	id-1273_AU1-33_AU13-33_AU26-33	emotion	Bang	0.1659789405711055	0.8779355845945247
id-1356_AU15-100	1	1	1	3	15	test_extra	id-1356_AU15-100	emotion	Verdrietig	0.2403382321704245	1.2117086210892012
id-1318_AU15-100_AU4-33_AU43-100_AU9-66	1	1	1	3	16	train	id-1318_AU15-100_AU4-33_AU43-100_AU9-66	emotion	Boos	0.3332853058802468	3.311899363718112
id-1356_AU12-33_AU17-66_AU5-33_AU9-66	1	1	1	3	17	test_extra	id-1356_AU12-33_AU17-66_AU5-33_AU9-66	emotion	Geen van allen	0.0	1.1781259649942513
id-1306_AU24-66_AU43-100_AU7-100	1	1	1	3	18	test	id-1306_AU24-66_AU43-100_AU7-100	emotion	Verdrietig	0.3041283408443016	2.7283458517940744
id-1366_AU14-33_AU2-100_AU26-100_AU27i-100	1	1	1	3	19	test	id-1366_AU14-33_AU2-100_AU26-100_AU27i-100	emotion	Bang	0.7079663443143578	1.6863374970307632
id-1358_AU16Open-33_AU17-33_AU2-100	1	1	1	3	20	train	id-1358_AU16Open-33_AU17-33_AU2-100	emotion	Bang	0.14247136928773904	3.0199653409254097
id-1378_AU26-66_AU4-33_AU43-66	1	1	1	3	21	test_extra	id-1378_AU26-66_AU4-33_AU43-66	emotion	Verdrietig	0.2263806092053513	3.619979045175569
id-1341_AU1-33_AU15-33_AU2-66_AU4-33	1	1	1	3	22	test	id-1341_AU1-33_AU15-33_AU2-66_AU4-33	emotion	Verdrietig	0.8773624804074044	0.8615010500052449
id-1289_AU22-33_AU4-33_AU6-66	1	1	1	3	23	test_extra	id-1289_AU22-33_AU4-33_AU6-66	emotion	Geen van allen	0.0	3.0948602724984084
id-1361_AU12-33_AU13-100_AU4-100	1	1	1	3	24	train	id-1361_AU12-33_AU13-100_AU4-100	emotion	Blij	0.4547956432733935	0.9450121512018086
id-1355_AU13-66_AU2-66_AU6-33	1	1	1	3	25	test_extra	id-1355_AU13-66_AU2-66_AU6-33	emotion	Boos	0.5930551137829201	0.9364068483810116
id-1345_AU17-66_AU25-66_AU6-100	1	1	1	3	26	test	id-1345_AU17-66_AU25-66_AU6-100	emotion	Boos	0.7806489052410509	2.603230580640229
id-1289_AU10Open-33_AU2-66_AU24-66	1	1	1	3	27	test_extra	id-1289_AU10Open-33_AU2-66_AU24-66	emotion	Boos	0.760118634345725	2.1948421309680266
id-1373_AU22-66_AU4-100	1	1	1	3	28	test_extra	id-1373_AU22-66_AU4-100	emotion	Verrassing	0.2270704577192848	4.253395197656573
id-1291_AU4-100_AU43-33_AU7-66	1	1	1	3	29	test	id-1291_AU4-100_AU43-33_AU7-66	emotion	Verrassing	0.4451542984339529	2.4365669828403043
id-1279_AU13-66_AU20-33	1	1	1	3	30	train	id-1279_AU13-66_AU20-33	emotion	Bang	0.4311280754659261	1.0864028789801523
id-1354_AU13-66_AU24-100_AU27i-66	1	1	1	3	31	test_extra	id-1354_AU13-66_AU24-100_AU27i-66	emotion	Bang	0.4549250168853372	5.970451343726381
id-1377_AU17-33_AU2-33_AU25-66_AU4-33_AU7-100	1	1	1	3	32	test_extra	id-1377_AU17-33_AU2-33_AU25-66_AU4-33_AU7-100	emotion	Geen van allen	0.0	6.678671267351094
id-1297_AU10Open-100_AU6-100	1	1	1	3	33	test_extra	id-1297_AU10Open-100_AU6-100	emotion	Boos	0.5230585576552281	1.0699523460370983
id-1260_AU17-33_AU24-100_AU6-33	1	1	1	3	34	train	id-1260_AU17-33_AU24-100_AU6-33	emotion	Verdrietig	0.3935539411616273	1.9448400934415984
id-1264_AU10Open-33_AU12-66	1	1	1	3	35	test_extra	id-1264_AU10Open-33_AU12-66	emotion	Geen van allen	0.0	6.853838744449604
id-1311_AU24-66	1	1	1	3	36	test_extra	id-1311_AU24-66	emotion	Geen van allen	0.0	3.3866162004160287
id-1367_AU43-100	1	1	1	4	1	test_extra	id-1367_AU43-100	valence	0.4619659737283627		2.13563494293885
id-1367_AU43-100	1	1	1	4	1	test_extra	id-1367_AU43-100	arousal	-0.9456715226910016		2.13563494293885
id-1315_AU10Open-100_AU12-66_AU43-100	1	1	1	4	2	test_extra	id-1315_AU10Open-100_AU12-66_AU43-100	valence	-0.7391455579653804		2.5688661182357464
id-1315_AU10Open-100_AU12-66_AU43-100	1	1	1	4	2	test_extra	id-1315_AU10Open-100_AU12-66_AU43-100	arousal	0.010869787617137949		2.5688661182357464
id-1355_AU12-100_AU26-33_AU5-66	1	1	1	4	3	test_extra	id-1355_AU12-100_AU26-33_AU5-66	valence	-0.418486823259811		1.8772295440685407
id-1355_AU12-100_AU26-33_AU5-66	1	1	1	4	3	test_extra	id-1355_AU12-100_AU26-33_AU5-66	arousal	0.07608851331996565		1.8772295440685407
id-1341_AU1-66_AU13-66_AU43-100_AU5-33_AU9-66	1	1	1	4	4	train	id-1341_AU1-66_AU13-66_AU43-100_AU5-33_AU9-66	valence	-0.0054348938085689745		1.9271522539111168
id-1341_AU1-66_AU13-66_AU43-100_AU5-33_AU9-66	1	1	1	4	4	train	id-1341_AU1-66_AU13-66_AU43-100_AU5-33_AU9-66	arousal	0.3369634161312764		1.9271522539111168
id-1307_AU17-33_AU4-33_AU5-33	1	1	1	4	5	train	id-1307_AU17-33_AU4-33_AU5-33	valence	0.0054348938085689745		4.9192375969742
id-1307_AU17-33_AU4-33_AU5-33	1	1	1	4	5	train	id-1307_AU17-33_AU4-33_AU5-33	arousal	0.0027174469042844872		4.9192375969742
id-1377_AU13-66_AU14-100_AU9-66	1	1	1	4	6	test_extra	id-1377_AU13-66_AU14-100_AU9-66	valence	-0.19565617710848307		3.8858185466797295
id-1377_AU13-66_AU14-100_AU9-66	1	1	1	4	6	test_extra	id-1377_AU13-66_AU14-100_AU9-66	arousal	0.418486823259811		3.8858185466797295
id-1363_AU1-100_AU25-66_AU5-66	1	1	1	4	7	train	id-1363_AU1-100_AU25-66_AU5-66	valence	-0.6114255534640095		4.969286482508323
id-1363_AU1-100_AU25-66_AU5-66	1	1	1	4	7	train	id-1363_AU1-100_AU25-66_AU5-66	arousal	0.4538136330155093		4.969286482508323
id-1315_AU1-66_AU20-66	1	1	1	4	8	train	id-1315_AU1-66_AU20-66	valence	-0.312506393992716		2.06890460483919
id-1315_AU1-66_AU20-66	1	1	1	4	8	train	id-1315_AU1-66_AU20-66	arousal	0.06521872570282768		2.06890460483919
id-1361_AU10Open-33_AU11-100_AU13-66_AU17-100_AU7-66	1	1	1	4	9	test_extra	id-1361_AU10Open-33_AU11-100_AU13-66_AU17-100_AU7-66	valence	-0.105980429267095		4.361824790263198
id-1361_AU10Open-33_AU11-100_AU13-66_AU17-100_AU7-66	1	1	1	4	9	test_extra	id-1361_AU10Open-33_AU11-100_AU13-66_AU17-100_AU7-66	arousal	-0.14130723902279332		4.361824790263198
id-1285_AU11-33_AU20-66_AU4-66	1	1	1	4	10	train	id-1285_AU11-33_AU20-66_AU4-66	valence	-0.13587234521422434		1.7687918013562012
id-1285_AU11-33_AU20-66_AU4-66	1	1	1	4	10	train	id-1285_AU11-33_AU20-66_AU4-66	arousal	-0.7146885358268201		1.7687918013562012
id-1297_AU14-66_AU25-100	1	1	1	4	11	test_extra	id-1297_AU14-66_AU25-100	valence	0.0625012787985432		1.88553993385176
id-1297_AU14-66_AU25-100	1	1	1	4	11	test_extra	id-1297_AU14-66_AU25-100	arousal	-0.7011013013053977		1.88553993385176
id-1285_AU11-66_AU4-33	1	1	1	4	12	test_extra	id-1285_AU11-66_AU4-33	valence	-0.0054348938085689745		3.027159770119397
id-1285_AU11-66_AU4-33	1	1	1	4	12	test_extra	id-1285_AU11-66_AU4-33	arousal	-0.8777353500838894		3.027159770119397
id-1293_AU13-100	1	1	1	4	13	test_extra	id-1293_AU13-100	valence	0.0		3.527350995716916
id-1293_AU13-100	1	1	1	4	13	test_extra	id-1293_AU13-100	arousal	-0.2418527744813193		3.527350995716916
id-1264_AU10Open-33_AU25-66_AU4-66	1	1	1	4	14	test	id-1264_AU10Open-33_AU25-66_AU4-66	valence	-0.08695830093710358		2.2938616734099924
id-1264_AU10Open-33_AU25-66_AU4-66	1	1	1	4	14	test	id-1264_AU10Open-33_AU25-66_AU4-66	arousal	0.32337618160985393		2.2938616734099924
id-1358_AU2-66_AU22-33_AU7-66	1	1	1	4	15	train	id-1358_AU2-66_AU22-33_AU7-66	valence	0.14945957973564675		1.7185959120888583
id-1358_AU2-66_AU22-33_AU7-66	1	1	1	4	15	train	id-1358_AU2-66_AU22-33_AU7-66	arousal	-0.4320740577812335		1.7185959120888583
id-1297_AU11-100_AU24-33	1	1	1	4	16	test	id-1297_AU11-100_AU24-33	valence	-0.6386000225068544		3.0438819732080447
id-1297_AU11-100_AU24-33	1	1	1	4	16	test	id-1297_AU11-100_AU24-33	arousal	0.14130723902279332		3.0438819732080447
id-1293_AU1-100_AU12-33_AU13-33_AU22-100	1	1	1	4	17	train	id-1293_AU1-100_AU12-33_AU13-33_AU22-100	valence	-0.01630468142570692		1.793640865951602
id-1293_AU1-100_AU12-33_AU13-33_AU22-100	1	1	1	4	17	train	id-1293_AU1-100_AU12-33_AU13-33_AU22-100	arousal	0.4293566108769489		1.793640865951602
id-1274_AU10Open-66_AU2-33_AU43-100_AU9-66	1	1	1	4	18	test	id-1274_AU10Open-66_AU2-33_AU43-100_AU9-66	valence	-0.5679464029954577		1.0771663958512363
id-1274_AU10Open-66_AU2-33_AU43-100_AU9-66	1	1	1	4	18	test	id-1274_AU10Open-66_AU2-33_AU43-100_AU9-66	arousal	0.6222953410811475		1.0771663958512363
id-1370_AU1-33_AU15-33_AU2-100	1	1	1	4	19	test_extra	id-1370_AU1-33_AU15-33_AU2-100	valence	0.4565310799197938		1.0352863297703152
id-1370_AU1-33_AU15-33_AU2-100	1	1	1	4	19	test_extra	id-1370_AU1-33_AU15-33_AU2-100	arousal	0.418486823259811		1.0352863297703152
id-1345_AU14-100	1	1	1	4	20	train	id-1345_AU14-100	valence	0.4429438453983714		1.1019904064214645
id-1345_AU14-100	1	1	1	4	20	train	id-1345_AU14-100	arousal	-0.4701183144412162		1.1019904064214645
id-1377_AU1-100_AU13-33_AU26-33_AU9-33	1	1	1	4	21	test_extra	id-1377_AU1-100_AU13-33_AU26-33_AU9-33	valence	-0.4728357613455008		0.8603488667286001
id-1377_AU1-100_AU13-33_AU26-33_AU9-33	1	1	1	4	21	test_extra	id-1377_AU1-100_AU13-33_AU26-33_AU9-33	arousal	0.40489958873838855		0.8603488667286001
id-1358_AU13-33_AU15-33	1	1	1	4	22	train	id-1358_AU13-33_AU15-33	valence	0.07608851331996565		2.010457791364388
id-1358_AU13-33_AU15-33	1	1	1	4	22	train	id-1358_AU13-33_AU15-33	arousal	-0.7690374739125099		2.010457791364388
id-1274_AU14-100_AU25-100_AU27i-66_AU5-33	1	1	1	4	23	test_extra	id-1274_AU14-100_AU25-100_AU27i-66_AU5-33	valence	-0.2907668187584401		1.7021339086313674
id-1274_AU14-100_AU25-100_AU27i-66_AU5-33	1	1	1	4	23	test_extra	id-1274_AU14-100_AU25-100_AU27i-66_AU5-33	arousal	0.5788161906125957		1.7021339086313674
id-1297_AU13-100_AU20-66_AU5-100_AU6-100	1	1	1	4	24	train	id-1297_AU13-100_AU20-66_AU5-100_AU6-100	valence	-0.8125166243810616		1.4520506719163675
id-1297_AU13-100_AU20-66_AU5-100_AU6-100	1	1	1	4	24	train	id-1297_AU13-100_AU20-66_AU5-100_AU6-100	arousal	0.5462068277611818		1.4520506719163675
id-1376_AU10Open-100_AU11-66_AU13-100_AU6-100	1	1	1	4	25	test_extra	id-1376_AU10Open-100_AU11-66_AU13-100_AU6-100	valence	-0.50272767729263		1.4021563365113252
id-1376_AU10Open-100_AU11-66_AU13-100_AU6-100	1	1	1	4	25	test_extra	id-1376_AU10Open-100_AU11-66_AU13-100_AU6-100	arousal	0.01630468142570692		1.4021563365113252
id-1377_AU17-66_AU24-33_AU4-100	1	1	1	4	26	test	id-1377_AU17-66_AU24-33_AU4-100	valence	0.13315489830993985		3.0690341009430995
id-1377_AU17-66_AU24-33_AU4-100	1	1	1	4	26	test	id-1377_AU17-66_AU24-33_AU4-100	arousal	-0.05434893808568974		3.0690341009430995
id-1291_AU15-66_AU20-66_AU7-100	1	1	1	4	27	test_extra	id-1291_AU15-66_AU20-66_AU7-100	valence	-0.5407719339526129		1.2019776982961048
id-1291_AU15-66_AU20-66_AU7-100	1	1	1	4	27	test_extra	id-1291_AU15-66_AU20-66_AU7-100	arousal	-0.42392171706838		1.2019776982961048
id-1280_AU15-33_AU27i-66	1	1	1	4	28	test_extra	id-1280_AU15-33_AU27i-66	valence	-0.7364281110610958		3.935740049098969
id-1280_AU15-33_AU27i-66	1	1	1	4	28	test_extra	id-1280_AU15-33_AU27i-66	arousal	0.03532680975569833		3.935740049098969
id-1290_AU11-33_AU5-66	1	1	1	4	29	test_extra	id-1290_AU11-33_AU5-66	valence	-0.6820791729754062		2.1021428435597045
id-1290_AU11-33_AU5-66	1	1	1	4	29	test_extra	id-1290_AU11-33_AU5-66	arousal	0.4347915046855179		2.1021428435597045
id-1273_AU15-66_AU20-66_AU5-66	1	1	1	4	30	train	id-1273_AU15-66_AU20-66_AU5-66	valence	-0.6875140667839752		0.960253148279662
id-1273_AU15-66_AU20-66_AU5-66	1	1	1	4	30	train	id-1273_AU15-66_AU20-66_AU5-66	arousal	0.5516417215697509		0.960253148279662
id-1270_AU10Open-66_AU12-33_AU14-33	1	1	1	4	31	test_extra	id-1270_AU10Open-66_AU12-33_AU14-33	valence	-0.3043540532798626		5.8775956950557875
id-1270_AU10Open-66_AU12-33_AU14-33	1	1	1	4	31	test_extra	id-1270_AU10Open-66_AU12-33_AU14-33	arousal	0.3423983099398454		5.8775956950557875
id-1355_AU11-100_AU15-100_AU2-66_AU25-33	1	1	1	4	32	test_extra	id-1355_AU11-100_AU15-100_AU2-66_AU25-33	valence	-0.5163149118140525		1.4438709856585774
id-1355_AU11-100_AU15-100_AU2-66_AU25-33	1	1	1	4	32	test_extra	id-1355_AU11-100_AU15-100_AU2-66_AU25-33	arousal	0.3750076727912592		1.4438709856585774
id-1294_AU13-33	1	1	1	4	33	train	id-1294_AU13-33	valence	0.4320740577812335		1.2938073393816012
id-1294_AU13-33	1	1	1	4	33	train	id-1294_AU13-33	arousal	-0.9646936510209928		1.2938073393816012
id-1380_AU10Open-33_AU13-33_AU16Open-100_AU22-33_AU43-66	1	1	1	4	34	test	id-1380_AU10Open-33_AU13-33_AU16Open-100_AU22-33_AU43-66	valence	-0.3750076727912592		1.1186516346551798
id-1380_AU10Open-33_AU13-33_AU16Open-100_AU22-33_AU43-66	1	1	1	4	34	test	id-1380_AU10Open-33_AU13-33_AU16Open-100_AU22-33_AU43-66	arousal	-0.2527225620984573		1.1186516346551798
id-1295_AU11-33_AU12-100_AU13-100_AU20-33_AU9-66	1	1	1	4	35	test	id-1295_AU11-33_AU12-100_AU13-100_AU20-33_AU9-66	valence	-0.9320842881695792		1.5686524043867394
id-1295_AU11-33_AU12-100_AU13-100_AU20-33_AU9-66	1	1	1	4	35	test	id-1295_AU11-33_AU12-100_AU13-100_AU20-33_AU9-66	arousal	0.4565310799197938		1.5686524043867394
id-1323_AU12-66_AU16Open-33_AU7-66_AU9-100	1	1	1	4	36	test	id-1323_AU12-66_AU16Open-33_AU7-66_AU9-100	valence	-0.959258757212424		1.0854034346939443
id-1323_AU12-66_AU16Open-33_AU7-66_AU9-100	1	1	1	4	36	test	id-1323_AU12-66_AU16Open-33_AU7-66_AU9-100	arousal	0.6875140667839752		1.0854034346939443
id-1376_AU13-66_AU16Open-100	1	1	2	5	1	test_extra	id-1376_AU13-66_AU16Open-100	valence	-0.7500153455825184		2.7942958928579174
id-1376_AU13-66_AU16Open-100	1	1	2	5	1	test_extra	id-1376_AU13-66_AU16Open-100	arousal	0.11685021688423293		2.7942958928579174
id-1315_AU15-33_AU17-100_AU22-100_AU24-66	1	1	2	5	2	test_extra	id-1315_AU15-33_AU17-100_AU22-100_AU24-66	valence	-0.0027174469042844872		4.294161717996758
id-1315_AU15-33_AU17-100_AU22-100_AU24-66	1	1	2	5	2	test_extra	id-1315_AU15-33_AU17-100_AU22-100_AU24-66	arousal	0.4375089515898024		4.294161717996758
id-1370_AU2-33_AU25-66_AU4-100	1	1	2	5	3	train	id-1370_AU2-33_AU25-66_AU4-100	valence	0.0027174469042844872		2.3854845433270384
id-1370_AU2-33_AU25-66_AU4-100	1	1	2	5	3	train	id-1370_AU2-33_AU25-66_AU4-100	arousal	-0.3722902258869748		2.3854845433270384
id-1373_AU5-33	1	1	2	5	4	train	id-1373_AU5-33	valence	-0.5951208720383027		0.7935967950179474
id-1373_AU5-33	1	1	2	5	4	train	id-1373_AU5-33	arousal	0.4266391639726645		0.7935967950179474
id-1315_AU5-33_AU6-66	1	1	2	5	5	test_extra	id-1315_AU5-33_AU6-66	valence	-0.6032732127511561		0.9685952329127758
id-1315_AU5-33_AU6-66	1	1	2	5	5	test_extra	id-1315_AU5-33_AU6-66	arousal	0.3831600135041127		0.9685952329127758
id-1307_AU16Open-33_AU2-100_AU5-33_AU6-66	1	1	2	5	6	train	id-1307_AU16Open-33_AU2-100_AU5-33_AU6-66	valence	-0.720123429635389		1.0186202718432469
id-1307_AU16Open-33_AU2-100_AU5-33_AU6-66	1	1	2	5	6	train	id-1307_AU16Open-33_AU2-100_AU5-33_AU6-66	arousal	0.6005557658468715		1.0186202718432469
id-1335_AU12-100_AU20-100_AU5-33	1	1	2	5	7	test_extra	id-1335_AU12-100_AU20-100_AU5-33	valence	-0.7119710889225355		1.11022080443945
id-1335_AU12-100_AU20-100_AU5-33	1	1	2	5	7	test_extra	id-1335_AU12-100_AU20-100_AU5-33	arousal	0.11141532307566396		1.11022080443945
id-1306_AU11-33_AU6-66	1	1	2	5	8	train	id-1306_AU11-33_AU6-66	valence	-0.07608851331996565		1.176988874503877
id-1306_AU11-33_AU6-66	1	1	2	5	8	train	id-1306_AU11-33_AU6-66	arousal	-0.5326195932397594		1.176988874503877
id-1302_AU26-100	1	1	2	5	9	test_extra	id-1302_AU26-100	valence	-0.0054348938085689745		2.0520833930750086
id-1302_AU26-100	1	1	2	5	9	test_extra	id-1302_AU26-100	arousal	0.4674008675369317		2.0520833930750086
id-1302_AU15-100_AU4-100_AU5-66_AU9-100	1	1	2	5	10	train	id-1302_AU15-100_AU4-100_AU5-66_AU9-100	valence	-0.3967472480255351		1.1103874287982762
id-1302_AU15-100_AU4-100_AU5-66_AU9-100	1	1	2	5	10	train	id-1302_AU15-100_AU4-100_AU5-66_AU9-100	arousal	0.5869685313254491		1.1103874287982762
id-1376_AU13-66_AU22-100_AU27i-33_AU6-33	1	1	2	5	11	test_extra	id-1376_AU13-66_AU22-100_AU27i-33_AU6-33	valence	-0.6657744915496994		2.5282076622424943
id-1376_AU13-66_AU22-100_AU27i-33_AU6-33	1	1	2	5	11	test_extra	id-1376_AU13-66_AU22-100_AU27i-33_AU6-33	arousal	0.024457022138560384		2.5282076622424943
id-1274_AU17-33_AU20-100_AU24-100_AU9-100	1	1	2	5	12	test_extra	id-1274_AU17-33_AU20-100_AU24-100_AU9-100	valence	-0.6358825756025699		1.3437578199482232
id-1274_AU17-33_AU20-100_AU24-100_AU9-100	1	1	2	5	12	test_extra	id-1274_AU17-33_AU20-100_AU24-100_AU9-100	arousal	0.5434893808568974		1.3437578199482232
id-1362_AU5-33_AU6-66_AU7-33	1	1	2	5	13	test	id-1362_AU5-33_AU6-66_AU7-33	valence	-0.0054348938085689745		1.3687650569409016
id-1362_AU5-33_AU6-66_AU7-33	1	1	2	5	13	test	id-1362_AU5-33_AU6-66_AU7-33	arousal	0.0054348938085689745		1.3687650569409016
id-1361_AU1-66_AU17-66_AU6-66_AU7-100	1	1	2	5	14	test_extra	id-1361_AU1-66_AU17-66_AU6-66_AU7-100	valence	-0.0054348938085689745		1.5272827763255918
id-1361_AU1-66_AU17-66_AU6-66_AU7-100	1	1	2	5	14	test_extra	id-1361_AU1-66_AU17-66_AU6-66_AU7-100	arousal	-0.1875038363956296		1.5272827763255918
id-1354_AU1-66_AU10Open-100	1	1	2	5	15	test	id-1354_AU1-66_AU10Open-100	valence	-0.2500051151941728		5.4192546518206655
id-1354_AU1-66_AU10Open-100	1	1	2	5	15	test	id-1354_AU1-66_AU10Open-100	arousal	-0.22283064615132792		5.4192546518206655
id-1356_AU10Open-66_AU22-100_AU4-100_AU7-33	1	1	2	5	16	test_extra	id-1356_AU10Open-66_AU22-100_AU4-100_AU7-33	valence	-0.010869787617137949		3.5440496540577437
id-1356_AU10Open-66_AU22-100_AU4-100_AU7-33	1	1	2	5	16	test_extra	id-1356_AU10Open-66_AU22-100_AU4-100_AU7-33	arousal	-0.40489958873838855		3.5440496540577437
id-1380_AU12-66_AU4-33	1	1	2	5	17	test_extra	id-1380_AU12-66_AU4-33	valence	-0.105980429267095		2.060531127212016
id-1380_AU12-66_AU4-33	1	1	2	5	17	test_extra	id-1380_AU12-66_AU4-33	arousal	0.17935149568277614		2.060531127212016
id-1307_AU10Open-66_AU17-33_AU22-33_AU9-100	1	1	2	5	18	test	id-1307_AU10Open-66_AU17-33_AU22-33_AU9-100	valence	-0.2201131992470434		1.435536145563674
id-1307_AU10Open-66_AU17-33_AU22-33_AU9-100	1	1	2	5	18	test	id-1307_AU10Open-66_AU17-33_AU22-33_AU9-100	arousal	0.5380544870483285		1.435536145563674
id-1306_AU16Open-33_AU17-100_AU22-66_AU4-100	1	1	2	5	19	test_extra	id-1306_AU16Open-33_AU17-100_AU22-66_AU4-100	valence	-0.1277200045013709		1.8187036443960096
id-1306_AU16Open-33_AU17-100_AU22-66_AU4-100	1	1	2	5	19	test_extra	id-1306_AU16Open-33_AU17-100_AU22-66_AU4-100	arousal	0.024457022138560384		1.8187036443960096
id-1293_AU22-66_AU25-100_AU5-33_AU9-33	1	1	2	5	20	test	id-1293_AU22-66_AU25-100_AU5-33_AU9-33	valence	-0.4293566108769489		1.7187414065447228
id-1293_AU22-66_AU25-100_AU5-33_AU9-33	1	1	2	5	20	test	id-1293_AU22-66_AU25-100_AU5-33_AU9-33	arousal	0.0027174469042844872		1.7187414065447228
id-1366_AU16Open-100_AU43-100	1	1	2	5	21	train	id-1366_AU16Open-100_AU43-100	valence	0.1250025575970864		1.9605061033726088
id-1366_AU16Open-100_AU43-100	1	1	2	5	21	train	id-1366_AU16Open-100_AU43-100	arousal	-0.4402263984940868		1.9605061033726088
id-1344_AU16Open-33	1	1	2	5	22	test_extra	id-1344_AU16Open-33	valence	-0.0027174469042844872		1.9770296853967009
id-1344_AU16Open-33	1	1	2	5	22	test_extra	id-1344_AU16Open-33	arousal	-0.9511064164995704		1.9770296853967009
id-1363_AU2-66_AU24-100_AU26-33	1	1	2	5	23	train	id-1363_AU2-66_AU24-100_AU26-33	valence	-0.4619659737283627		6.102665959519073
id-1363_AU2-66_AU24-100_AU26-33	1	1	2	5	23	train	id-1363_AU2-66_AU24-100_AU26-33	arousal	-0.07337106641568114		6.102665959519073
id-1260_AU22-100_AU25-100_AU26-100	1	1	2	5	24	test	id-1260_AU22-100_AU25-100_AU26-100	valence	0.00815234071285346		5.285904756674427
id-1260_AU22-100_AU25-100_AU26-100	1	1	2	5	24	test	id-1260_AU22-100_AU25-100_AU26-100	arousal	-0.0054348938085689745		5.285904756674427
id-1266_AU25-100_AU4-100	1	1	2	5	25	train	id-1266_AU25-100_AU4-100	valence	-0.14130723902279332		2.1105283954166225
id-1266_AU25-100_AU4-100	1	1	2	5	25	train	id-1266_AU25-100_AU4-100	arousal	-0.9565413103081394		2.1105283954166225
id-1370_AU26-100_AU4-33_AU6-33	1	1	2	5	26	train	id-1370_AU26-100_AU4-33_AU6-33	valence	0.19022128329991408		1.2687708223857044
id-1370_AU26-100_AU4-33_AU6-33	1	1	2	5	26	train	id-1370_AU26-100_AU4-33_AU6-33	arousal	-0.7989293898596391		1.2687708223857044
id-1362_AU12-66_AU17-100_AU22-100	1	1	2	5	27	test_extra	id-1362_AU12-66_AU17-100_AU22-100	valence	0.10869787617137948		0.6686605243048689
id-1362_AU12-66_AU17-100_AU22-100	1	1	2	5	27	test_extra	id-1362_AU12-66_AU17-100_AU22-100	arousal	0.04891404427712077		0.6686605243048689
id-1361_AU12-33_AU15-33_AU16Open-100_AU6-66	1	1	2	5	28	test	id-1361_AU12-33_AU15-33_AU16Open-100_AU6-66	valence	-0.2364178806727504		0.8852854694814596
id-1361_AU12-33_AU15-33_AU16Open-100_AU6-66	1	1	2	5	28	test	id-1361_AU12-33_AU15-33_AU16Open-100_AU6-66	arousal	0.13315489830993985		0.8852854694814596
id-1310_AU20-33_AU24-33	1	1	2	5	29	test_extra	id-1310_AU20-33_AU24-33	valence	-0.20380851782133647		1.6437538052668972
id-1310_AU20-33_AU24-33	1	1	2	5	29	test_extra	id-1310_AU20-33_AU24-33	arousal	-0.2201131992470434		1.6437538052668972
id-1354_AU16Open-33_AU20-33_AU25-100_AU7-66	1	1	2	5	30	test_extra	id-1354_AU16Open-33_AU20-33_AU25-100_AU7-66	valence	-0.33968086303556083		1.4353329966616002
id-1354_AU16Open-33_AU20-33_AU25-100_AU7-66	1	1	2	5	30	test_extra	id-1354_AU16Open-33_AU20-33_AU25-100_AU7-66	arousal	0.28261447804558665		1.4353329966616002
id-1362_AU26-66_AU9-66	1	1	2	5	31	test_extra	id-1362_AU26-66_AU9-66	valence	-0.7337106641568115		1.186732777092402
id-1362_AU26-66_AU9-66	1	1	2	5	31	test_extra	id-1362_AU26-66_AU9-66	arousal	0.2472876682898883		1.186732777092402
id-1341_AU24-66_AU4-66_AU9-66	1	1	2	5	32	train	id-1341_AU24-66_AU4-66_AU9-66	valence	0.0		1.0186429110253812
id-1341_AU24-66_AU4-66_AU9-66	1	1	2	5	32	train	id-1341_AU24-66_AU4-66_AU9-66	arousal	0.4266391639726645		1.0186429110253812
id-1373_AU1-33_AU26-100_AU27i-66_AU7-66	1	1	2	5	33	test_extra	id-1373_AU1-33_AU26-100_AU27i-66_AU7-66	valence	-0.7445804517739495		0.9770339113783848
id-1373_AU1-33_AU26-100_AU27i-66_AU7-66	1	1	2	5	33	test_extra	id-1373_AU1-33_AU26-100_AU27i-66_AU7-66	arousal	0.4972927834840611		0.9770339113783848
id-1345_AU14-66_AU4-33_AU6-100	1	1	2	5	34	test_extra	id-1345_AU14-66_AU4-33_AU6-100	valence	0.5788161906125957		0.8768809007124219
id-1345_AU14-66_AU4-33_AU6-100	1	1	2	5	34	test_extra	id-1345_AU14-66_AU4-33_AU6-100	arousal	0.3043540532798626		0.8768809007124219
id-1273_AU16Open-33_AU17-100_AU22-100	1	1	2	5	35	train	id-1273_AU16Open-33_AU17-100_AU22-100	valence	0.5978383189425871		2.502159023028071
id-1273_AU16Open-33_AU17-100_AU22-100	1	1	2	5	35	train	id-1273_AU16Open-33_AU17-100_AU22-100	arousal	0.0842408540328191		2.502159023028071
id-1318_AU22-100_AU26-100_AU27i-33_AU4-33_AU6-33	1	1	2	5	36	test	id-1318_AU22-100_AU26-100_AU27i-33_AU4-33_AU6-33	valence	-0.13858979211850886		2.4688788263592882
id-1318_AU22-100_AU26-100_AU27i-33_AU4-33_AU6-33	1	1	2	5	36	test	id-1318_AU22-100_AU26-100_AU27i-33_AU4-33_AU6-33	arousal	0.5760987437083112		2.4688788263592882
id-1358_AU1-66_AU13-100_AU24-33_AU26-33	1	1	2	6	1	test_extra	id-1358_AU1-66_AU13-100_AU24-33_AU26-33	emotion	Verrassing	0.28712617369725885	2.8532926874540863
id-1269_AU10Open-66_AU20-66_AU26-66_AU43-66	1	1	2	6	2	test	id-1269_AU10Open-66_AU20-66_AU26-66_AU43-66	emotion	Walging	0.3696857708967112	1.4031162376923019
id-1339_AU10Open-100_AU12-33_AU20-100_AU27i-33	1	1	2	6	3	test	id-1339_AU10Open-100_AU12-33_AU20-100_AU27i-33	emotion	Blij	0.17019750907895814	1.461440195893374
id-1295_AU1-33_AU16Open-100_AU22-66_AU4-33	1	1	2	6	4	test_extra	id-1295_AU1-33_AU16Open-100_AU22-66_AU4-33	emotion	Bang	0.15024196593800224	1.46967119762121
id-1310_AU12-33_AU14-33_AU22-100_AU6-100	1	1	2	6	5	test	id-1310_AU12-33_AU14-33_AU22-100_AU6-100	emotion	Blij	0.2061568041169309	1.361536518052162
id-1264_AU14-66_AU15-66_AU20-66_AU6-33	1	1	2	6	6	test_extra	id-1264_AU14-66_AU15-66_AU20-66_AU6-33	emotion	Verrassing	0.19785519905453566	4.878733992965864
id-1354_AU11-100_AU15-100_AU4-66_AU9-66	1	1	2	6	7	test_extra	id-1354_AU11-100_AU15-100_AU4-66_AU9-66	emotion	Walging	0.6038012843563393	1.0281045785159222
id-1370_AU17-66_AU20-66_AU26-66_AU5-100	1	1	2	6	8	test_extra	id-1370_AU17-66_AU20-66_AU26-66_AU5-100	emotion	Bang	0.8187222185232271	1.2363506126603172
id-1280_AU1-66_AU17-100_AU26-33	1	1	2	6	9	test_extra	id-1280_AU1-66_AU17-100_AU26-33	emotion	Bang	0.16720043726623382	1.6113861184421694
id-1323_AU26-33	1	1	2	6	10	train	id-1323_AU26-33	emotion	Bang	0.03526775769240032	2.644912025662052
id-1347_AU1-66_AU26-33	1	1	2	6	11	test_extra	id-1347_AU1-66_AU26-33	emotion	Bang	0.3777950301142278	0.8448005805294088
id-1361_AU15-33_AU16Open-100_AU27i-100_AU6-33	1	1	2	6	12	train	id-1361_AU15-33_AU16Open-100_AU27i-100_AU6-33	emotion	Bang	0.2313359830786288	2.2614589713193722
id-1377_AU14-33_AU5-100_AU6-66	1	1	2	6	13	train	id-1377_AU14-33_AU5-100_AU6-66	emotion	Blij	0.12294831726128765	0.9198627401674456
id-1335_AU13-33_AU4-66_AU9-33	1	1	2	6	14	train	id-1335_AU13-33_AU4-66_AU9-33	emotion	Boos	0.2749126487309071	2.4780914628863684
id-1290_AU22-33	1	1	2	6	15	train	id-1290_AU22-33	emotion	Boos	0.3715938387474488	1.0531359639644506
id-1260_AU12-100_AU4-66_AU43-66	1	1	2	6	16	test_extra	id-1260_AU12-100_AU4-66_AU43-66	emotion	Verdrietig	0.7794916933785782	0.9197118123083784
id-1345_AU10Open-33_AU27i-100	1	1	2	6	17	train	id-1345_AU10Open-33_AU27i-100	emotion	Verrassing	0.3669804136687887	5.020370431298943
id-1363_AU1-33_AU15-100_AU2-66_AU22-66_AU5-100	1	1	2	6	18	test	id-1363_AU1-33_AU15-100_AU2-66_AU22-66_AU5-100	emotion	Verrassing	0.6988924293646853	1.403134650896391
id-1367_AU14-100_AU4-66_AU5-100	1	1	2	6	19	test_extra	id-1367_AU14-100_AU4-66_AU5-100	emotion	Geen van allen	0.0	4.270391183879838
id-1311_AU25-33	1	1	2	6	20	train	id-1311_AU25-33	emotion	Geen van allen	0.0	1.528037415620929
id-1318_AU2-66_AU22-100_AU5-33_AU7-66	1	1	2	6	21	train	id-1318_AU2-66_AU22-100_AU5-33_AU7-66	emotion	Boos	0.23635513029815056	1.8447788469165969
id-1302_AU1-100_AU11-66_AU13-33_AU24-33	1	1	2	6	22	test_extra	id-1302_AU1-100_AU11-66_AU13-33_AU24-33	emotion	Geen van allen	0.0	3.4866403186897514
id-1270_AU11-33_AU17-66	1	1	2	6	23	test_extra	id-1270_AU11-33_AU17-66	emotion	Verdrietig	0.19515679376940745	3.486734195816098
id-1335_AU43-66_AU5-66	1	1	2	6	24	test	id-1335_AU43-66_AU5-66	emotion	Verdrietig	0.5281041111179289	1.4117058440169783
id-1347_AU13-100_AU14-66_AU17-100_AU27i-66_AU7-100	1	1	2	6	25	test	id-1347_AU13-100_AU14-66_AU17-100_AU27i-66_AU7-100	emotion	Bang	0.5386357290021487	1.4866053034238575
id-1380_AU5-66	1	1	2	6	26	train	id-1380_AU5-66	emotion	Boos	0.5645864914147914	1.0196598629372602
id-1296_AU1-33_AU14-66_AU15-66_AU5-100	1	1	2	6	27	train	id-1296_AU1-33_AU14-66_AU15-66_AU5-100	emotion	Verrassing	0.3861944758914238	4.01997198175377
id-1269_AU10Open-33	1	1	2	6	28	test_extra	id-1269_AU10Open-33	emotion	Boos	0.5153797253403334	2.161308979211753
id-1311_AU10Open-66_AU16Open-66_AU25-100_AU26-33	1	1	2	6	29	test_extra	id-1311_AU10Open-66_AU16Open-66_AU25-100_AU26-33	emotion	Bang	0.5858502687621417	0.8697196756475023
id-1367_AU25-66_AU4-66_AU6-33	1	1	2	6	30	test	id-1367_AU25-66_AU4-66_AU6-33	emotion	Verrassing	0.4884854298031884	1.8198645814882184
id-1294_AU11-66_AU43-33_AU5-33	1	1	2	6	31	test_extra	id-1294_AU11-66_AU43-33_AU5-33	emotion	Verdrietig	0.13959681963063722	2.15318000471234
id-1318_AU1-33_AU16Open-33_AU20-100_AU43-66	1	1	2	6	32	test_extra	id-1318_AU1-33_AU16Open-33_AU20-100_AU43-66	emotion	Verdrietig	0.2317650693589123	0.9949076940283704
id-1269_AU14-33_AU25-66	1	1	2	6	33	test_extra	id-1269_AU14-33_AU25-66	emotion	Blij	0.17387724807554847	0.7387677223268838
id-1290_AU1-66_AU22-33_AU25-66	1	1	2	6	34	test_extra	id-1290_AU1-66_AU22-33_AU25-66	emotion	Bang	0.1041714507550295	1.6365762799941876
id-1358_AU16Open-66_AU43-66	1	1	2	6	35	test_extra	id-1358_AU16Open-66_AU43-66	emotion	Verdrietig	0.11834804648424685	0.7865095246052078
id-1296_AU22-66_AU24-66_AU25-66_AU5-66_AU6-100	1	1	2	6	36	test_extra	id-1296_AU22-66_AU24-66_AU25-66_AU5-66_AU6-100	emotion	Geen van allen	0.0	1.3198813344788505
id-1264_AU15-66_AU24-33_AU4-100	1	1	2	7	1	train	id-1264_AU15-66_AU24-33_AU4-100	emotion	Verrassing	0.0980152347857367	2.486627942602354
id-1315_AU12-66_AU17-33_AU2-100_AU4-100	1	1	2	7	2	test	id-1315_AU12-66_AU17-33_AU2-100_AU4-100	emotion	Geen van allen	0.0	2.9115680468821665
id-1309_AU11-66_AU24-66	1	1	2	7	3	test	id-1309_AU11-66_AU24-66	emotion	Geen van allen	0.0	2.1781932788217087
id-1347_AU17-66_AU26-100_AU27i-100_AU9-33	1	1	2	7	4	test_extra	id-1347_AU17-66_AU26-100_AU27i-100_AU9-33	emotion	Bang	0.6104583498791292	1.5113073642824018
id-1362_AU12-33_AU20-66_AU26-100	1	1	2	7	5	train	id-1362_AU12-33_AU20-66_AU26-100	emotion	Blij	0.4691851014256839	0.927905987642589
id-1356_AU24-33_AU27i-33	1	1	2	7	6	train	id-1356_AU24-33_AU27i-33	emotion	Verrassing	0.06098158076667096	4.261711926410499
id-1360_AU1-100_AU13-66_AU27i-100_AU4-33_AU9-100	1	1	2	7	7	test_extra	id-1360_AU1-100_AU13-66_AU27i-100_AU4-33_AU9-100	emotion	Walging	0.4762825215188528	2.269931155766244
id-1290_AU10Open-33_AU14-66_AU24-66	1	1	2	7	8	test	id-1290_AU10Open-33_AU14-66_AU24-66	emotion	Blij	0.08832526119930732	1.9364518248839888
id-1367_AU10Open-33_AU14-33_AU17-66_AU43-66	1	1	2	7	9	train	id-1367_AU10Open-33_AU14-33_AU17-66_AU43-66	emotion	Blij	0.3935180571872228	0.7695331590002752
id-1291_AU14-33_AU7-33	1	1	2	7	10	train	id-1291_AU14-33_AU7-33	emotion	Blij	0.11169336658644873	0.7363112204911886
id-1294_AU11-66_AU20-33_AU25-33	1	1	2	7	11	test	id-1294_AU11-66_AU20-33_AU25-33	emotion	Boos	0.08248368272477775	6.103551604199311
id-1363_AU16Open-66_AU26-66_AU43-66	1	1	2	7	12	test_extra	id-1363_AU16Open-66_AU26-66_AU43-66	emotion	Verdrietig	0.1892188898258564	1.0612305269096396
id-1274_AU2-33_AU20-100_AU25-66_AU6-66	1	1	2	7	13	test_extra	id-1274_AU2-33_AU20-100_AU25-66_AU6-66	emotion	Bang	0.1936535970201363	1.4948523035054675
id-1306_AU16Open-66_AU17-33_AU26-100	1	1	2	7	14	train	id-1306_AU16Open-66_AU17-33_AU26-100	emotion	Boos	0.06247783511251781	2.2198095230050967
id-1373_AU6-66_AU7-66	1	1	2	7	15	test_extra	id-1373_AU6-66_AU7-66	emotion	Boos	0.3924764201618847	1.2614638010090855
id-1297_AU22-66_AU9-100	1	1	2	7	16	test_extra	id-1297_AU22-66_AU9-100	emotion	Boos	0.6224651291917823	1.1366805711477357
id-1293_AU2-33_AU25-33_AU7-100	1	1	2	7	17	test_extra	id-1293_AU2-33_AU25-33_AU7-100	emotion	Bang	0.5663506090593767	1.0112483514894848
id-1293_AU24-33_AU27i-33_AU4-33	1	1	2	7	18	test_extra	id-1293_AU24-33_AU27i-33_AU4-33	emotion	Bang	0.3190705802706645	4.337228680760745
id-1280_AU15-100_AU26-66_AU43-66	1	1	2	7	19	test_extra	id-1280_AU15-100_AU26-66_AU43-66	emotion	Walging	0.2536415486936667	1.7865170709992526
id-1289_AU2-100	1	1	2	7	20	test_extra	id-1289_AU2-100	emotion	Verrassing	0.4347739401790873	1.4448800893260343
id-1306_AU12-100_AU26-66_AU4-100_AU5-66	1	1	2	7	21	test_extra	id-1306_AU12-100_AU26-66_AU4-100_AU5-66	emotion	Bang	0.8841038717341668	0.8531595690838003
id-1342_AU1-100_AU27i-33	1	1	2	7	22	test_extra	id-1342_AU1-100_AU27i-33	emotion	Geen van allen	0.0	2.611562100322772
id-1356_AU6-33	1	1	2	7	23	test	id-1356_AU6-33	emotion	Boos	0.4750463354119506	0.997068075404968
id-1376_AU14-100_AU16Open-33_AU6-66_AU9-100	1	1	2	7	24	test_extra	id-1376_AU14-100_AU16Open-33_AU6-66_AU9-100	emotion	Boos	0.6484290043709923	1.0446649869409157
id-1302_AU14-66_AU27i-33	1	1	2	7	25	test_extra	id-1302_AU14-66_AU27i-33	emotion	Bang	0.6593430793844095	1.0198249780187325
id-1280_AU1-33_AU15-33_AU20-33_AU25-66	1	1	2	7	26	test_extra	id-1280_AU1-33_AU15-33_AU20-33_AU25-66	emotion	Bang	0.6250401645559526	0.9971202964443364
id-1366_AU10Open-66_AU12-33_AU6-100_AU7-33	1	1	2	7	27	train	id-1366_AU10Open-66_AU12-33_AU6-100_AU7-33	emotion	Blij	0.021027972200440014	1.3197433864152115
id-1355_AU13-66_AU14-100_AU15-100_AU7-33	1	1	2	7	28	test	id-1355_AU13-66_AU14-100_AU15-100_AU7-33	emotion	Geen van allen	0.0	3.2283707548886014
id-1370_AU11-66_AU2-100_AU25-66_AU7-66	1	1	2	7	29	test_extra	id-1370_AU11-66_AU2-100_AU25-66_AU7-66	emotion	Geen van allen	0.0	3.4865899087817525
id-1344_AU2-33_AU20-100_AU24-100	1	1	2	7	30	test	id-1344_AU2-33_AU20-100_AU24-100	emotion	Walging	0.052730126505009335	5.078539839370934
id-1273_AU12-100_AU16Open-100_AU5-66	1	1	2	7	31	test_extra	id-1273_AU12-100_AU16Open-100_AU5-66	emotion	Blij	0.4661983961943684	1.003062929972657
id-1370_AU25-66	1	1	2	7	32	test_extra	id-1370_AU25-66	emotion	Blij	0.06716714374758175	0.9033110855598352
id-1273_AU13-33_AU4-100_AU9-100	1	1	2	7	33	test_extra	id-1273_AU13-33_AU4-100_AU9-100	emotion	Geen van allen	0.0	5.053571239910526
id-1264_AU13-100_AU15-33_AU22-33	1	1	2	7	34	test_extra	id-1264_AU13-100_AU15-33_AU22-33	emotion	Bang	0.09122566229614186	3.853449350572192
id-1264_AU26-100_AU6-66_AU7-33	1	1	2	7	35	test_extra	id-1264_AU26-100_AU6-66_AU7-33	emotion	Boos	0.10703246368089607	0.8279660871121449
id-1264_AU14-33_AU16Open-100_AU20-33	1	1	2	7	36	test_extra	id-1264_AU14-33_AU16Open-100_AU20-33	emotion	Bang	0.25874012552950504	4.21181004461323
id-1291_AU15-100_AU22-66	1	1	2	8	1	test_extra	id-1291_AU15-100_AU22-66	emotion	Walging	0.04709142939555792	5.2619183957212945
id-1344_AU13-66_AU14-66_AU24-33_AU9-33	1	1	2	8	2	test	id-1344_AU13-66_AU14-66_AU24-33_AU9-33	emotion	Boos	0.4931709071978054	1.8698244195838924
id-1318_AU22-33_AU25-33_AU26-66	1	1	2	8	3	test_extra	id-1318_AU22-33_AU25-33_AU26-66	emotion	Bang	0.588204046585453	0.9612643649379606
id-1355_AU10Open-100_AU2-33_AU20-66	1	1	2	8	4	train	id-1355_AU10Open-100_AU2-33_AU20-66	emotion	Boos	0.5315315354704305	0.9863956646295264
id-1310_AU15-66_AU25-100_AU4-100_AU43-33	1	1	2	8	5	train	id-1310_AU15-66_AU25-100_AU4-100_AU43-33	emotion	Verdrietig	0.4529491342052005	1.544719170044118
id-1291_AU14-100_AU15-66	1	1	2	8	6	test_extra	id-1291_AU14-100_AU15-66	emotion	Geen van allen	0.0	1.1615468415147916
id-1264_AU10Open-33_AU11-100_AU2-66_AU20-100	1	1	2	8	7	train	id-1264_AU10Open-33_AU11-100_AU2-66_AU20-100	emotion	Bang	0.5776580852074865	2.003190011233528
id-1378_AU1-66_AU20-66_AU7-33	1	1	2	8	8	test	id-1378_AU1-66_AU20-66_AU7-33	emotion	Geen van allen	0.0	2.828321673147002
id-1294_AU10Open-66_AU27i-66_AU43-33_AU7-66	1	1	2	8	9	train	id-1294_AU10Open-66_AU27i-66_AU43-33_AU7-66	emotion	Geen van allen	0.0	3.878383236624359
id-1309_AU15-66_AU43-100	1	1	2	8	10	train	id-1309_AU15-66_AU43-100	emotion	Verdrietig	0.2108585559180025	3.3199392907808942
id-1347_AU4-33_AU43-66_AU9-66	1	1	2	8	11	test_extra	id-1347_AU4-33_AU43-66_AU9-66	emotion	Verdrietig	0.4444803689259445	0.9863458584368344
id-1311_AU11-100_AU16Open-33_AU24-100_AU5-100	1	1	2	8	12	train	id-1311_AU11-100_AU16Open-33_AU24-100_AU5-100	emotion	Bang	0.35996542127070824	1.1279901450143368
id-1345_AU25-100_AU43-66	1	1	2	8	13	train	id-1345_AU25-100_AU43-66	emotion	Verdrietig	0.5975466649365954	0.7362846571886621
id-1366_AU9-33	1	1	2	8	14	test_extra	id-1366_AU9-33	emotion	Boos	0.6122992304198114	1.3862331455093226
id-1318_AU1-33_AU13-66_AU26-66	1	1	2	8	15	train	id-1318_AU1-33_AU13-66_AU26-66	emotion	Bang	0.6270435258519219	1.0697624787899258
id-1285_AU24-66_AU9-66	1	1	2	8	16	test_extra	id-1285_AU24-66_AU9-66	emotion	Geen van allen	0.0	4.620097976327088
id-1373_AU11-33_AU13-100_AU16Open-66_AU43-33	1	1	2	8	17	test	id-1373_AU11-33_AU13-100_AU16Open-66_AU43-33	emotion	Bang	0.2785396444819615	2.66168584607658
id-1269_AU13-33_AU15-100	1	1	2	8	18	test_extra	id-1269_AU13-33_AU15-100	emotion	Geen van allen	0.0	3.0532754213054436
id-1377_AU24-100	1	1	2	8	19	test_extra	id-1377_AU24-100	emotion	Verdrietig	0.13252479968709485	1.7449171270236548
id-1293_AU14-33_AU15-33_AU43-66	1	1	2	8	20	test_extra	id-1293_AU14-33_AU15-33_AU43-66	emotion	Geen van allen	0.0	2.1782427831567475
id-1363_AU16Open-66_AU4-33_AU6-66_AU9-100	1	1	2	8	21	test_extra	id-1363_AU16Open-66_AU4-33_AU6-66_AU9-100	emotion	Boos	0.2301346060675117	3.9034713709443167
id-1297_AU13-66_AU7-33_AU9-33	1	1	2	8	22	test_extra	id-1297_AU13-66_AU7-33_AU9-33	emotion	Boos	0.4987302946618333	0.8280038190787309
id-1356_AU11-100_AU12-33_AU25-66	1	1	2	8	23	test_extra	id-1356_AU11-100_AU12-33_AU25-66	emotion	Blij	0.498413003662108	1.8118222395823973
id-1323_AU25-33_AU26-66	1	1	2	8	24	train	id-1323_AU25-33_AU26-66	emotion	Bang	0.4509018324706085	2.2366669574548723
id-1302_AU1-33_AU22-100	1	1	2	8	25	test_extra	id-1302_AU1-33_AU22-100	emotion	Verrassing	0.6046748384578713	0.9112157812560326
id-1273_AU12-100_AU16Open-33_AU20-100_AU22-66_AU5-66	1	1	2	8	26	test	id-1273_AU12-100_AU16Open-33_AU20-100_AU22-66_AU5-66	emotion	Bang	0.7566634278118549	0.9112260443507694
id-1296_AU1-66_AU17-100_AU27i-33_AU4-66_AU5-100	1	1	2	8	27	test	id-1296_AU1-66_AU17-100_AU27i-33_AU4-66_AU5-100	emotion	Walging	0.5156891269705942	0.9195651104273566
id-1344_AU1-33_AU10Open-100	1	1	2	8	28	train	id-1344_AU1-33_AU10Open-100	emotion	Boos	0.6838987964965031	0.8529114436823875
id-1362_AU11-100_AU17-33_AU43-66	1	1	2	8	29	test_extra	id-1362_AU11-100_AU17-33_AU43-66	emotion	Walging	0.5482465656638446	1.8614959184560576
id-1378_AU11-100_AU12-66_AU15-100_AU43-33	1	1	2	8	30	train	id-1378_AU11-100_AU12-66_AU15-100_AU43-33	emotion	Walging	0.4481696661823035	3.628375765692908
id-1347_AU1-100_AU11-66_AU25-33_AU5-33	1	1	2	8	31	test_extra	id-1347_AU1-100_AU11-66_AU25-33_AU5-33	emotion	Bang	0.3382067235923693	4.770202373128996
id-1260_AU12-66_AU25-33	1	1	2	8	32	test	id-1260_AU12-66_AU25-33	emotion	Blij	0.1163662961091288	1.7031345603354566
id-1266_AU1-66_AU12-100_AU24-100	1	1	2	8	33	test_extra	id-1266_AU1-66_AU12-100_AU24-100	emotion	Blij	0.16245524605321174	0.7028656068905548
id-1355_AU26-33_AU7-100	1	1	2	8	34	test_extra	id-1355_AU26-33_AU7-100	emotion	Bang	0.4044901366105262	0.9031085403730684
id-1307_AU1-100_AU13-100	1	1	2	8	35	test_extra	id-1307_AU1-100_AU13-100	emotion	Geen van allen	0.0	3.895085215379368
id-1279_AU22-33_AU26-33_AU4-33	1	1	2	8	36	test	id-1279_AU22-33_AU26-33_AU4-33	emotion	Verrassing	0.2309569930072023	0.7781019372778246
id-1290_AU10Open-33_AU14-66_AU24-66	1	1	3	9	1	test	id-1290_AU10Open-33_AU14-66_AU24-66	valence	-0.8831702438924582		2.0855444013141096
id-1290_AU10Open-33_AU14-66_AU24-66	1	1	3	9	1	test	id-1290_AU10Open-33_AU14-66_AU24-66	arousal	0.6603395977411303		2.0855444013141096
id-1356_AU24-33_AU27i-33	1	1	3	9	2	train	id-1356_AU24-33_AU27i-33	valence	-0.013587234521422437		1.7020364092350064
id-1356_AU24-33_AU27i-33	1	1	3	9	2	train	id-1356_AU24-33_AU27i-33	arousal	0.4945753365797766		1.7020364092350064
id-1370_AU11-66_AU2-100_AU25-66_AU7-66	1	1	3	9	3	test_extra	id-1370_AU11-66_AU2-100_AU25-66_AU7-66	valence	-0.00815234071285346		4.319019234550069
id-1370_AU11-66_AU2-100_AU25-66_AU7-66	1	1	3	9	3	test_extra	id-1370_AU11-66_AU2-100_AU25-66_AU7-66	arousal	0.20380851782133647		4.319019234550069
id-1373_AU6-66_AU7-66	1	1	3	9	4	test_extra	id-1373_AU6-66_AU7-66	valence	0.0027174469042844872		2.110443272104021
id-1373_AU6-66_AU7-66	1	1	3	9	4	test_extra	id-1373_AU6-66_AU7-66	arousal	-0.6032732127511561		2.110443272104021
id-1264_AU14-33_AU16Open-100_AU20-33	1	1	3	9	5	test_extra	id-1264_AU14-33_AU16Open-100_AU20-33	valence	-0.6983838544011131		1.22704621199955
id-1264_AU14-33_AU16Open-100_AU20-33	1	1	3	9	5	test_extra	id-1264_AU14-33_AU16Open-100_AU20-33	arousal	0.19565617710848307		1.22704621199955
id-1293_AU24-33_AU27i-33_AU4-33	1	1	3	9	6	test_extra	id-1293_AU24-33_AU27i-33_AU4-33	valence	-0.23098298686418134		2.385441679813084
id-1293_AU24-33_AU27i-33_AU4-33	1	1	3	9	6	test_extra	id-1293_AU24-33_AU27i-33_AU4-33	arousal	0.04891404427712077		2.385441679813084
id-1342_AU1-100_AU27i-33	1	1	3	9	7	test_extra	id-1342_AU1-100_AU27i-33	valence	-0.02717446904284487		1.6772139079439512
id-1342_AU1-100_AU27i-33	1	1	3	9	7	test_extra	id-1342_AU1-100_AU27i-33	arousal	0.4728357613455008		1.6772139079439512
id-1273_AU13-33_AU4-100_AU9-100	1	1	3	9	8	test_extra	id-1273_AU13-33_AU4-100_AU9-100	valence	-0.17935149568277614		1.2272227975918213
id-1273_AU13-33_AU4-100_AU9-100	1	1	3	9	8	test_extra	id-1273_AU13-33_AU4-100_AU9-100	arousal	0.2744621373327332		1.2272227975918213
id-1289_AU2-100	1	1	3	9	9	test_extra	id-1289_AU2-100	valence	0.3722902258869748		1.0270166905102087
id-1289_AU2-100	1	1	3	9	9	test_extra	id-1289_AU2-100	arousal	0.2527225620984573		1.0270166905102087
id-1366_AU10Open-66_AU12-33_AU6-100_AU7-33	1	1	3	9	10	train	id-1366_AU10Open-66_AU12-33_AU6-100_AU7-33	valence	0.0		1.2854018650468788
id-1366_AU10Open-66_AU12-33_AU6-100_AU7-33	1	1	3	9	10	train	id-1366_AU10Open-66_AU12-33_AU6-100_AU7-33	arousal	0.2282655399598969		1.2854018650468788
id-1291_AU14-33_AU7-33	1	1	3	9	11	train	id-1291_AU14-33_AU7-33	valence	0.0027174469042844872		1.1270474496050156
id-1291_AU14-33_AU7-33	1	1	3	9	11	train	id-1291_AU14-33_AU7-33	arousal	-0.4674008675369317		1.1270474496050156
id-1309_AU11-66_AU24-66	1	1	3	9	12	test	id-1309_AU11-66_AU24-66	valence	-0.3587029913655523		1.668747156894824
id-1309_AU11-66_AU24-66	1	1	3	9	12	test	id-1309_AU11-66_AU24-66	arousal	-0.8424085403281909		1.668747156894824
id-1360_AU1-100_AU13-66_AU27i-100_AU4-33_AU9-100	1	1	3	9	13	test_extra	id-1360_AU1-100_AU13-66_AU27i-100_AU4-33_AU9-100	valence	-0.14674213283136228		0.9521685465733754
id-1360_AU1-100_AU13-66_AU27i-100_AU4-33_AU9-100	1	1	3	9	13	test_extra	id-1360_AU1-100_AU13-66_AU27i-100_AU4-33_AU9-100	arousal	0.720123429635389		0.9521685465733754
id-1274_AU2-33_AU20-100_AU25-66_AU6-66	1	1	3	9	14	test_extra	id-1274_AU2-33_AU20-100_AU25-66_AU6-66	valence	-0.6114255534640095		1.3354634285205975
id-1274_AU2-33_AU20-100_AU25-66_AU6-66	1	1	3	9	14	test_extra	id-1274_AU2-33_AU20-100_AU25-66_AU6-66	arousal	0.3913123542169661		1.3354634285205975
id-1315_AU12-66_AU17-33_AU2-100_AU4-100	1	1	3	9	15	test	id-1315_AU12-66_AU17-33_AU2-100_AU4-100	valence	-0.3206587347055695		1.2768916467794045
id-1315_AU12-66_AU17-33_AU2-100_AU4-100	1	1	3	9	15	test	id-1315_AU12-66_AU17-33_AU2-100_AU4-100	arousal	0.5054451241969146		1.2768916467794045
id-1264_AU13-100_AU15-33_AU22-33	1	1	3	9	16	test_extra	id-1264_AU13-100_AU15-33_AU22-33	valence	-0.010869787617137949		2.685517053185322
id-1264_AU13-100_AU15-33_AU22-33	1	1	3	9	16	test_extra	id-1264_AU13-100_AU15-33_AU22-33	arousal	-0.6168604472725784		2.685517053185322
id-1297_AU22-66_AU9-100	1	1	3	9	17	test_extra	id-1297_AU22-66_AU9-100	valence	-0.33968086303556083		4.652609648332144
id-1297_AU22-66_AU9-100	1	1	3	9	17	test_extra	id-1297_AU22-66_AU9-100	arousal	0.19565617710848307		4.652609648332144
id-1344_AU2-33_AU20-100_AU24-100	1	1	3	9	18	test	id-1344_AU2-33_AU20-100_AU24-100	valence	0.0		1.4271487825681106
id-1344_AU2-33_AU20-100_AU24-100	1	1	3	9	18	test	id-1344_AU2-33_AU20-100_AU24-100	arousal	0.5326195932397594		1.4271487825681106
id-1306_AU16Open-66_AU17-33_AU26-100	1	1	3	9	19	train	id-1306_AU16Open-66_AU17-33_AU26-100	valence	-0.0054348938085689745		2.793908310119149
id-1306_AU16Open-66_AU17-33_AU26-100	1	1	3	9	19	train	id-1306_AU16Open-66_AU17-33_AU26-100	arousal	0.2663097966198797		2.793908310119149
id-1280_AU15-100_AU26-66_AU43-66	1	1	3	9	20	test_extra	id-1280_AU15-100_AU26-66_AU43-66	valence	-0.4809881020583541		1.0437219896739407
id-1280_AU15-100_AU26-66_AU43-66	1	1	3	9	20	test_extra	id-1280_AU15-100_AU26-66_AU43-66	arousal	0.28261447804558665		1.0437219896739407
id-1273_AU12-100_AU16Open-100_AU5-66	1	1	3	9	21	test_extra	id-1273_AU12-100_AU16Open-100_AU5-66	valence	0.11141532307566396		2.7272166095499406
id-1273_AU12-100_AU16Open-100_AU5-66	1	1	3	9	21	test_extra	id-1273_AU12-100_AU16Open-100_AU5-66	arousal	0.04619659737283628		2.7272166095499406
id-1306_AU12-100_AU26-66_AU4-100_AU5-66	1	1	3	9	22	test_extra	id-1306_AU12-100_AU26-66_AU4-100_AU5-66	valence	0.05978383189425871		1.7187824589200318
id-1306_AU12-100_AU26-66_AU4-100_AU5-66	1	1	3	9	22	test_extra	id-1306_AU12-100_AU26-66_AU4-100_AU5-66	arousal	0.3260936285141384		1.7187824589200318
id-1293_AU2-33_AU25-33_AU7-100	1	1	3	9	23	test_extra	id-1293_AU2-33_AU25-33_AU7-100	valence	-0.1630468142570692		2.5689307153588743
id-1293_AU2-33_AU25-33_AU7-100	1	1	3	9	23	test_extra	id-1293_AU2-33_AU25-33_AU7-100	arousal	0.3369634161312764		2.5689307153588743
id-1367_AU10Open-33_AU14-33_AU17-66_AU43-66	1	1	3	9	24	train	id-1367_AU10Open-33_AU14-33_AU17-66_AU43-66	valence	0.20380851782133647		1.0020405446557559
id-1367_AU10Open-33_AU14-33_AU17-66_AU43-66	1	1	3	9	24	train	id-1367_AU10Open-33_AU14-33_AU17-66_AU43-66	arousal	-0.5978383189425871		1.0020405446557559
id-1370_AU25-66	1	1	3	9	25	test_extra	id-1370_AU25-66	valence	0.3722902258869748		1.4187451193683955
id-1370_AU25-66	1	1	3	9	25	test_extra	id-1370_AU25-66	arousal	-0.9782808855424152		1.4187451193683955
id-1356_AU6-33	1	1	3	9	26	test	id-1356_AU6-33	valence	-0.00815234071285346		1.143726789181528
id-1356_AU6-33	1	1	3	9	26	test	id-1356_AU6-33	arousal	-0.9837157793509842		1.143726789181528
id-1264_AU26-100_AU6-66_AU7-33	1	1	3	9	27	test_extra	id-1264_AU26-100_AU6-66_AU7-33	valence	-0.0027174469042844872		1.4104975155751165
id-1264_AU26-100_AU6-66_AU7-33	1	1	3	9	27	test_extra	id-1264_AU26-100_AU6-66_AU7-33	arousal	-0.7744723677210787		1.4104975155751165
id-1347_AU17-66_AU26-100_AU27i-100_AU9-33	1	1	3	9	28	test_extra	id-1347_AU17-66_AU26-100_AU27i-100_AU9-33	valence	-0.7527327924868029		0.7519183685544704
id-1347_AU17-66_AU26-100_AU27i-100_AU9-33	1	1	3	9	28	test_extra	id-1347_AU17-66_AU26-100_AU27i-100_AU9-33	arousal	0.20380851782133647		0.7519183685544704
id-1355_AU13-66_AU14-100_AU15-100_AU7-33	1	1	3	9	29	test	id-1355_AU13-66_AU14-100_AU15-100_AU7-33	valence	-0.0054348938085689745		2.018833381982404
id-1355_AU13-66_AU14-100_AU15-100_AU7-33	1	1	3	9	29	test	id-1355_AU13-66_AU14-100_AU15-100_AU7-33	arousal	0.28533192494987114		2.018833381982404
id-1264_AU15-66_AU24-33_AU4-100	1	1	3	9	30	train	id-1264_AU15-66_AU24-33_AU4-100	valence	-0.00815234071285346		4.2524310704939134
id-1264_AU15-66_AU24-33_AU4-100	1	1	3	9	30	train	id-1264_AU15-66_AU24-33_AU4-100	arousal	0.2527225620984573		4.2524310704939134
id-1280_AU1-33_AU15-33_AU20-33_AU25-66	1	1	3	9	31	test_extra	id-1280_AU1-33_AU15-33_AU20-33_AU25-66	valence	-0.19022128329991408		2.68586690396478
id-1280_AU1-33_AU15-33_AU20-33_AU25-66	1	1	3	9	31	test_extra	id-1280_AU1-33_AU15-33_AU20-33_AU25-66	arousal	0.36685533207840576		2.68586690396478
id-1363_AU16Open-66_AU26-66_AU43-66	1	1	3	9	32	test_extra	id-1363_AU16Open-66_AU26-66_AU43-66	valence	-0.010869787617137949		2.960537496368488
id-1363_AU16Open-66_AU26-66_AU43-66	1	1	3	9	32	test_extra	id-1363_AU16Open-66_AU26-66_AU43-66	arousal	-0.4809881020583541		2.960537496368488
id-1302_AU14-66_AU27i-33	1	1	3	9	33	test_extra	id-1302_AU14-66_AU27i-33	valence	-0.057066384989974225		1.3855095973522111
id-1302_AU14-66_AU27i-33	1	1	3	9	33	test_extra	id-1302_AU14-66_AU27i-33	arousal	-0.4782706551540697		1.3855095973522111
id-1294_AU11-66_AU20-33_AU25-33	1	1	3	9	34	test	id-1294_AU11-66_AU20-33_AU25-33	valence	-0.04891404427712077		3.910576450845837
id-1294_AU11-66_AU20-33_AU25-33	1	1	3	9	34	test	id-1294_AU11-66_AU20-33_AU25-33	arousal	-0.23370043376846586		3.910576450845837
id-1376_AU14-100_AU16Open-33_AU6-66_AU9-100	1	1	3	9	35	test_extra	id-1376_AU14-100_AU16Open-33_AU6-66_AU9-100	valence	-0.6141430003682941		0.868570510931022
id-1376_AU14-100_AU16Open-33_AU6-66_AU9-100	1	1	3	9	35	test_extra	id-1376_AU14-100_AU16Open-33_AU6-66_AU9-100	arousal	0.5190323587183371		0.868570510931022
id-1362_AU12-33_AU20-66_AU26-100	1	1	3	9	36	train	id-1362_AU12-33_AU20-66_AU26-100	valence	0.3505506506526989		0.9853168322915736
id-1362_AU12-33_AU20-66_AU26-100	1	1	3	9	36	train	id-1362_AU12-33_AU20-66_AU26-100	arousal	-0.2554400090027418		0.9853168322915736
id-1355_AU12-100_AU26-33_AU5-66	1	1	3	10	1	test_extra	id-1355_AU12-100_AU26-33_AU5-66	emotion	Blij	0.06036260982814338	1.5949283409609052
id-1264_AU10Open-33_AU25-66_AU4-66	1	1	3	10	2	test	id-1264_AU10Open-33_AU25-66_AU4-66	emotion	Verrassing	0.2594011720563038	1.8614965221677269
id-1367_AU43-100	1	1	3	10	3	test_extra	id-1367_AU43-100	emotion	Verdrietig	0.13824828674815307	2.7616233317567094
id-1291_AU15-66_AU20-66_AU7-100	1	1	3	10	4	test_extra	id-1291_AU15-66_AU20-66_AU7-100	emotion	Verdrietig	0.5366663641198045	1.1114369811293727
id-1285_AU11-66_AU4-33	1	1	3	10	5	test_extra	id-1285_AU11-66_AU4-33	emotion	Verdrietig	0.17304982324886087	2.511412410072808
id-1377_AU13-66_AU14-100_AU9-66	1	1	3	10	6	test_extra	id-1377_AU13-66_AU14-100_AU9-66	emotion	Boos	0.4901096370394107	1.1782279922299497
id-1370_AU1-33_AU15-33_AU2-100	1	1	3	10	7	test_extra	id-1370_AU1-33_AU15-33_AU2-100	emotion	Verrassing	0.6177446999507256	0.9698690640434506
id-1363_AU1-100_AU25-66_AU5-66	1	1	3	10	8	train	id-1363_AU1-100_AU25-66_AU5-66	emotion	Bang	0.10504216619381317	0.8029543222874054
id-1290_AU11-33_AU5-66	1	1	3	10	9	test_extra	id-1290_AU11-33_AU5-66	emotion	Boos	0.2370652794624921	2.702980613918044
id-1377_AU1-100_AU13-33_AU26-33_AU9-33	1	1	3	10	10	test_extra	id-1377_AU1-100_AU13-33_AU26-33_AU9-33	emotion	Boos	0.6378916605156698	1.4280788000396571
id-1294_AU13-33	1	1	3	10	11	train	id-1294_AU13-33	emotion	Blij	0.23089379287016265	1.2864215336630878
id-1315_AU10Open-100_AU12-66_AU43-100	1	1	3	10	12	test_extra	id-1315_AU10Open-100_AU12-66_AU43-100	emotion	Blij	0.38836276280195214	1.0529699433172937
id-1341_AU1-66_AU13-66_AU43-100_AU5-33_AU9-66	1	1	3	10	13	train	id-1341_AU1-66_AU13-66_AU43-100_AU5-33_AU9-66	emotion	Geen van allen	0.0	2.2197787337208865
id-1270_AU10Open-66_AU12-33_AU14-33	1	1	3	10	14	test_extra	id-1270_AU10Open-66_AU12-33_AU14-33	emotion	Blij	0.2525520606521645	0.8697857820552599
id-1358_AU2-66_AU22-33_AU7-66	1	1	3	10	15	train	id-1358_AU2-66_AU22-33_AU7-66	emotion	Geen van allen	0.0	4.078616510723806
id-1285_AU11-33_AU20-66_AU4-66	1	1	3	10	16	train	id-1285_AU11-33_AU20-66_AU4-66	emotion	Verdrietig	0.2983823354282939	1.5115213799872436
id-1274_AU14-100_AU25-100_AU27i-66_AU5-33	1	1	3	10	17	test_extra	id-1274_AU14-100_AU25-100_AU27i-66_AU5-33	emotion	Bang	0.32556600115306145	6.087060622590798
id-1361_AU10Open-33_AU11-100_AU13-66_AU17-100_AU7-66	1	1	3	10	18	test_extra	id-1361_AU10Open-33_AU11-100_AU13-66_AU17-100_AU7-66	emotion	Blij	0.5557430242669822	0.9278733872233716
id-1358_AU13-33_AU15-33	1	1	3	10	19	train	id-1358_AU13-33_AU15-33	emotion	Blij	0.049290115222438716	0.9446837321811472
id-1280_AU15-33_AU27i-66	1	1	3	10	20	test_extra	id-1280_AU15-33_AU27i-66	emotion	Bang	0.2927285627792893	1.5530600472520746
id-1297_AU13-100_AU20-66_AU5-100_AU6-100	1	1	3	10	21	train	id-1297_AU13-100_AU20-66_AU5-100_AU6-100	emotion	Verdrietig	0.12682668496903196	3.20330918387117
id-1273_AU15-66_AU20-66_AU5-66	1	1	3	10	22	train	id-1273_AU15-66_AU20-66_AU5-66	emotion	Geen van allen	0.0	5.0368804298159375
id-1293_AU13-100	1	1	3	10	23	test_extra	id-1293_AU13-100	emotion	Verdrietig	0.13250800203015478	1.9698932125029387
id-1315_AU1-66_AU20-66	1	1	3	10	24	train	id-1315_AU1-66_AU20-66	emotion	Verrassing	0.1529264758751633	3.1950202258412896
id-1377_AU17-66_AU24-33_AU4-100	1	1	3	10	25	test	id-1377_AU17-66_AU24-33_AU4-100	emotion	Boos	0.08457269351450021	2.6782694973881007
id-1297_AU14-66_AU25-100	1	1	3	10	26	test_extra	id-1297_AU14-66_AU25-100	emotion	Blij	0.2810161588694821	0.6864503910692292
id-1355_AU11-100_AU15-100_AU2-66_AU25-33	1	1	3	10	27	test_extra	id-1355_AU11-100_AU15-100_AU2-66_AU25-33	emotion	Bang	0.4456305323978092	1.2864680194434186
id-1293_AU1-100_AU12-33_AU13-33_AU22-100	1	1	3	10	28	train	id-1293_AU1-100_AU12-33_AU13-33_AU22-100	emotion	Blij	0.6176357766194198	0.8445083841943415
id-1323_AU12-66_AU16Open-33_AU7-66_AU9-100	1	1	3	10	29	test	id-1323_AU12-66_AU16Open-33_AU7-66_AU9-100	emotion	Geen van allen	0.0	1.036204574862495
id-1274_AU10Open-66_AU2-33_AU43-100_AU9-66	1	1	3	10	30	test	id-1274_AU10Open-66_AU2-33_AU43-100_AU9-66	emotion	Walging	0.488922522540518	1.0949200399300023
id-1297_AU11-100_AU24-33	1	1	3	10	31	test	id-1297_AU11-100_AU24-33	emotion	Verrassing	0.20481990995498026	2.6949506480959826
id-1295_AU11-33_AU12-100_AU13-100_AU20-33_AU9-66	1	1	3	10	32	test	id-1295_AU11-33_AU12-100_AU13-100_AU20-33_AU9-66	emotion	Walging	0.5888229431814463	0.7613365688230258
id-1380_AU10Open-33_AU13-33_AU16Open-100_AU22-33_AU43-66	1	1	3	10	33	test	id-1380_AU10Open-33_AU13-33_AU16Open-100_AU22-33_AU43-66	emotion	Verdrietig	0.20622419687444235	2.103163719599252
id-1376_AU10Open-100_AU11-66_AU13-100_AU6-100	1	1	3	10	34	test_extra	id-1376_AU10Open-100_AU11-66_AU13-100_AU6-100	emotion	Geen van allen	0.0	2.4866101331135724
id-1345_AU14-100	1	1	3	10	35	train	id-1345_AU14-100	emotion	Blij	0.14660545056276506	0.6946792798080423
id-1307_AU17-33_AU4-33_AU5-33	1	1	3	10	36	train	id-1307_AU17-33_AU4-33_AU5-33	emotion	Verrassing	0.10511614082977694	2.7782244906993583
id-1293_AU22-100_AU24-33	1	1	3	11	1	test_extra	id-1293_AU22-100_AU24-33	emotion	Verdrietig	0.1984200185197078	3.8615475357873934
id-1356_AU13-100_AU15-33_AU16Open-100	1	1	3	11	2	train	id-1356_AU13-100_AU15-33_AU16Open-100	emotion	Blij	0.07621230286362235	1.0947851104247093
id-1306_AU11-33_AU16Open-66	1	1	3	11	3	test_extra	id-1306_AU11-33_AU16Open-66	emotion	Blij	0.07110993745822597	2.353918887143664
id-1380_AU17-33_AU27i-100_AU6-100	1	1	3	11	4	test_extra	id-1380_AU17-33_AU27i-100_AU6-100	emotion	Bang	0.2908430919168837	1.2613394364561827
id-1309_AU15-33	1	1	3	11	5	test	id-1309_AU15-33	emotion	Verrassing	0.09114770209818077	3.3116630106924285
id-1378_AU1-66_AU16Open-33_AU5-100	1	1	3	11	6	test_extra	id-1378_AU1-66_AU16Open-33_AU5-100	emotion	Verrassing	0.6693096453327801	0.8029663965135114
id-1339_AU11-100_AU15-66_AU43-33	1	1	3	11	7	test_extra	id-1339_AU11-100_AU15-66_AU43-33	emotion	Walging	0.2547043671809792	2.0781884793141217
id-1297_AU1-66_AU11-66	1	1	3	11	8	test_extra	id-1297_AU1-66_AU11-66	emotion	Geen van allen	0.0	6.437073798591883
id-1274_AU16Open-33_AU27i-100_AU6-100	1	1	3	11	9	test_extra	id-1274_AU16Open-33_AU27i-100_AU6-100	emotion	Bang	0.3749446195439197	1.6198652455714182
id-1376_AU1-100_AU13-33_AU14-33_AU27i-66	1	1	3	11	10	test	id-1376_AU1-100_AU13-33_AU14-33_AU27i-66	emotion	Bang	0.7933280507250787	0.9447585923990118
id-1366_AU15-100_AU16Open-33_AU27i-33	1	1	3	11	11	test_extra	id-1366_AU15-100_AU16Open-33_AU27i-33	emotion	Bang	0.5962303030402002	0.8280291749579192
id-1315_AU15-33_AU20-100	1	1	3	11	12	test_extra	id-1315_AU15-33_AU20-100	emotion	Verdrietig	0.440487303070848	1.2447083937950083
id-1295_AU24-100_AU25-100	1	1	3	11	13	test_extra	id-1295_AU24-100_AU25-100	emotion	Boos	0.3749446195439197	0.9029862888055504
id-1362_AU17-66_AU27i-100_AU9-100	1	1	3	11	14	test_extra	id-1362_AU17-66_AU27i-100_AU9-100	emotion	Boos	0.6591666199285089	1.0197196303706733
id-1274_AU15-100_AU16Open-66_AU24-33	1	1	3	11	15	test_extra	id-1274_AU15-100_AU16Open-66_AU24-33	emotion	Boos	0.2577821474118754	1.2195616994576994
id-1266_AU13-66_AU17-100_AU2-100_AU9-33	1	1	3	11	16	test	id-1266_AU13-66_AU17-100_AU2-100_AU9-33	emotion	Walging	0.412563301189242	1.2280818789658952
id-1323_AU10Open-100_AU2-33_AU20-66_AU4-66	1	1	3	11	17	test_extra	id-1323_AU10Open-100_AU2-33_AU20-66_AU4-66	emotion	Walging	0.6002840132069948	1.8282398702504
id-1360_AU1-100_AU11-66	1	1	3	11	18	test	id-1360_AU1-100_AU11-66	emotion	Geen van allen	0.0	5.386927111805562
id-1297_AU20-33_AU22-33_AU26-66	1	1	3	11	19	train	id-1297_AU20-33_AU22-33_AU26-66	emotion	Bang	0.4586973543815938	1.378030820073036
id-1291_AU20-33_AU24-100_AU25-33_AU27i-100	1	1	3	11	20	test	id-1291_AU20-33_AU24-100_AU25-33_AU27i-100	emotion	Bang	0.4522918114367756	2.3449353591058752
id-1310_AU27i-100_AU5-33_AU7-100	1	1	3	11	21	test_extra	id-1310_AU27i-100_AU5-33_AU7-100	emotion	Walging	0.3997631429144392	2.8700257573473213
id-1260_AU1-100_AU16Open-100_AU2-33	1	1	3	11	22	test_extra	id-1260_AU1-100_AU16Open-100_AU2-33	emotion	Bang	0.2845941004953026	2.8700930711711408
id-1378_AU12-100_AU13-33_AU2-100_AU27i-100	1	1	3	11	23	test_extra	id-1378_AU12-100_AU13-33_AU2-100_AU27i-100	emotion	Blij	0.7334740330405015	0.8364056711434387
id-1291_AU1-100_AU14-100_AU24-66	1	1	3	11	24	test_extra	id-1291_AU1-100_AU14-100_AU24-66	emotion	Blij	0.15171335513440554	0.8697362777165836
id-1370_AU10Open-100_AU2-33_AU27i-66_AU5-66	1	1	3	11	25	test	id-1370_AU10Open-100_AU2-33_AU27i-66_AU5-66	emotion	Verrassing	0.10568876300483017	2.3449235867337848
id-1270_AU11-100_AU15-100_AU20-66_AU7-66	1	1	3	11	26	test	id-1270_AU11-100_AU15-100_AU20-66_AU7-66	emotion	Walging	0.2633110488389601	3.311810618139134
id-1306_AU15-66_AU27i-66_AU43-33	1	1	3	11	27	train	id-1306_AU15-66_AU27i-66_AU43-33	emotion	Walging	0.3442426610216969	4.236898480790842
id-1342_AU11-33_AU4-100_AU43-100_AU5-33	1	1	3	11	28	train	id-1342_AU11-33_AU4-100_AU43-100_AU5-33	emotion	Verdrietig	0.696351407641672	0.8448135603248375
id-1377_AU10Open-66_AU16Open-66_AU26-100	1	1	3	11	29	test_extra	id-1377_AU10Open-66_AU16Open-66_AU26-100	emotion	Geen van allen	0.0	2.911775421758648
id-1347_AU22-100_AU6-100	1	1	3	11	30	test_extra	id-1347_AU22-100_AU6-100	emotion	Boos	0.2616246715210524	1.4780597680364735
id-1311_AU1-66_AU11-66_AU12-66_AU17-100	1	1	3	11	31	train	id-1311_AU1-66_AU11-66_AU12-66_AU17-100	emotion	Blij	0.10234685202808662	0.9863521974039032
id-1376_AU16Open-100_AU43-66_AU5-33	1	1	3	11	32	test_extra	id-1376_AU16Open-100_AU43-66_AU5-33	emotion	Geen van allen	0.0	4.878401951678825
id-1341_AU14-33_AU4-100_AU7-66	1	1	3	11	33	train	id-1341_AU14-33_AU4-100_AU7-66	emotion	Geen van allen	0.0	4.07839826903728
id-1269_AU11-100_AU13-33_AU25-100	1	1	3	11	34	test_extra	id-1269_AU11-100_AU13-33_AU25-100	emotion	Blij	0.06858134444264086	0.8863407570715935
id-1266_AU11-66_AU17-100_AU43-66_AU6-66	1	1	3	11	35	test_extra	id-1266_AU11-66_AU17-100_AU43-66_AU6-66	emotion	Verdrietig	0.3368611231010808	1.3113176877486694
id-1358_AU2-33_AU4-33_AU9-100	1	1	3	11	36	test_extra	id-1358_AU2-33_AU4-33_AU9-100	emotion	Walging	0.33440987793345983	1.9531610481753887
id-1356_AU11-100_AU12-33_AU25-66	1	1	3	12	1	test_extra	id-1356_AU11-100_AU12-33_AU25-66	valence	0.5706638498997423		1.943792654099525
id-1356_AU11-100_AU12-33_AU25-66	1	1	3	12	1	test_extra	id-1356_AU11-100_AU12-33_AU25-66	arousal	0.01630468142570692		1.943792654099525
id-1266_AU1-66_AU12-100_AU24-100	1	1	3	12	2	test_extra	id-1266_AU1-66_AU12-100_AU24-100	valence	0.16032936735278475		0.8601819405157585
id-1266_AU1-66_AU12-100_AU24-100	1	1	3	12	2	test_extra	id-1266_AU1-66_AU12-100_AU24-100	arousal	0.01902212832999141		0.8601819405157585
id-1264_AU10Open-33_AU11-100_AU2-66_AU20-100	1	1	3	12	3	train	id-1264_AU10Open-33_AU11-100_AU2-66_AU20-100	valence	-0.6222953410811475		0.6018734373319603
id-1264_AU10Open-33_AU11-100_AU2-66_AU20-100	1	1	3	12	3	train	id-1264_AU10Open-33_AU11-100_AU2-66_AU20-100	arousal	0.1875038363956296		0.6018734373319603
id-1310_AU15-66_AU25-100_AU4-100_AU43-33	1	1	3	12	4	train	id-1310_AU15-66_AU25-100_AU4-100_AU43-33	valence	-0.1684817080656382		0.601823932993284
id-1310_AU15-66_AU25-100_AU4-100_AU43-33	1	1	3	12	4	train	id-1310_AU15-66_AU25-100_AU4-100_AU43-33	arousal	-0.6168604472725784		0.601823932993284
id-1377_AU24-100	1	1	3	12	5	test_extra	id-1377_AU24-100	valence	0.07337106641568114		0.8437042405603279
id-1377_AU24-100	1	1	3	12	5	test_extra	id-1377_AU24-100	arousal	-0.5788161906125957		0.8437042405603279
id-1362_AU11-100_AU17-33_AU43-66	1	1	3	12	6	test_extra	id-1362_AU11-100_AU17-33_AU43-66	valence	-0.0027174469042844872		1.1188218812785635
id-1362_AU11-100_AU17-33_AU43-66	1	1	3	12	6	test_extra	id-1362_AU11-100_AU17-33_AU43-66	arousal	-0.5489242746654663		1.1188218812785635
id-1378_AU11-100_AU12-66_AU15-100_AU43-33	1	1	3	12	7	train	id-1378_AU11-100_AU12-66_AU15-100_AU43-33	valence	0.0027174469042844872		1.0687877866766942
id-1378_AU11-100_AU12-66_AU15-100_AU43-33	1	1	3	12	7	train	id-1378_AU11-100_AU12-66_AU15-100_AU43-33	arousal	-0.4945753365797766		1.0687877866766942
id-1307_AU1-100_AU13-100	1	1	3	12	8	test_extra	id-1307_AU1-100_AU13-100	valence	-0.010869787617137949		1.802250394750445
id-1307_AU1-100_AU13-100	1	1	3	12	8	test_extra	id-1307_AU1-100_AU13-100	arousal	-0.8179515181896305		1.802250394750445
id-1297_AU13-66_AU7-33_AU9-33	1	1	3	12	9	test_extra	id-1297_AU13-66_AU7-33_AU9-33	valence	-0.1684817080656382		1.8103902360562645
id-1297_AU13-66_AU7-33_AU9-33	1	1	3	12	9	test_extra	id-1297_AU13-66_AU7-33_AU9-33	arousal	-0.864148115562467		1.8103902360562645
id-1347_AU1-100_AU11-66_AU25-33_AU5-33	1	1	3	12	10	test_extra	id-1347_AU1-100_AU11-66_AU25-33_AU5-33	valence	-0.00815234071285346		1.7439037973745144
id-1347_AU1-100_AU11-66_AU25-33_AU5-33	1	1	3	12	10	test_extra	id-1347_AU1-100_AU11-66_AU25-33_AU5-33	arousal	-0.915779606743872		1.7439037973745144
id-1296_AU1-66_AU17-100_AU27i-33_AU4-66_AU5-100	1	1	3	12	11	test	id-1296_AU1-66_AU17-100_AU27i-33_AU4-66_AU5-100	valence	0.0027174469042844872		1.2019272883917438
id-1296_AU1-66_AU17-100_AU27i-33_AU4-66_AU5-100	1	1	3	12	11	test	id-1296_AU1-66_AU17-100_AU27i-33_AU4-66_AU5-100	arousal	0.0		1.2019272883917438
id-1323_AU25-33_AU26-66	1	1	3	12	12	train	id-1323_AU25-33_AU26-66	valence	0.04891404427712077		2.5856761613395065
id-1323_AU25-33_AU26-66	1	1	3	12	12	train	id-1323_AU25-33_AU26-66	arousal	-0.9755634386381308		2.5856761613395065
id-1311_AU11-100_AU16Open-33_AU24-100_AU5-100	1	1	3	12	13	train	id-1311_AU11-100_AU16Open-33_AU24-100_AU5-100	valence	-0.010869787617137949		2.9439511283526367
id-1311_AU11-100_AU16Open-33_AU24-100_AU5-100	1	1	3	12	13	train	id-1311_AU11-100_AU16Open-33_AU24-100_AU5-100	arousal	0.14945957973564675		2.9439511283526367
id-1347_AU4-33_AU43-66_AU9-66	1	1	3	12	14	test_extra	id-1347_AU4-33_AU43-66_AU9-66	valence	-0.2581574559070263		1.2935106152071971
id-1347_AU4-33_AU43-66_AU9-66	1	1	3	12	14	test_extra	id-1347_AU4-33_AU43-66_AU9-66	arousal	-0.6087081065597252		1.2935106152071971
id-1344_AU1-33_AU10Open-100	1	1	3	12	15	train	id-1344_AU1-33_AU10Open-100	valence	-0.00815234071285346		1.7687308265012691
id-1344_AU1-33_AU10Open-100	1	1	3	12	15	train	id-1344_AU1-33_AU10Open-100	arousal	-0.9782808855424152		1.7687308265012691
id-1294_AU10Open-66_AU27i-66_AU43-33_AU7-66	1	1	3	12	16	train	id-1294_AU10Open-66_AU27i-66_AU43-33_AU7-66	valence	0.07065361951139666		2.043771494012617
id-1294_AU10Open-66_AU27i-66_AU43-33_AU7-66	1	1	3	12	16	train	id-1294_AU10Open-66_AU27i-66_AU43-33_AU7-66	arousal	0.010869787617137949		2.043771494012617
id-1302_AU1-33_AU22-100	1	1	3	12	17	test_extra	id-1302_AU1-33_AU22-100	valence	0.3777251196955437		1.0855350437886957
id-1302_AU1-33_AU22-100	1	1	3	12	17	test_extra	id-1302_AU1-33_AU22-100	arousal	0.08695830093710358		1.0855350437886957
id-1318_AU1-33_AU13-66_AU26-66	1	1	3	12	18	train	id-1318_AU1-33_AU13-66_AU26-66	valence	-0.5163149118140525		1.0270224257656082
id-1318_AU1-33_AU13-66_AU26-66	1	1	3	12	18	train	id-1318_AU1-33_AU13-66_AU26-66	arousal	-0.19022128329991408		1.0270224257656082
id-1345_AU25-100_AU43-66	1	1	3	12	19	train	id-1345_AU25-100_AU43-66	valence	0.029891915947129363		4.102433832471434
id-1345_AU25-100_AU43-66	1	1	3	12	19	train	id-1345_AU25-100_AU43-66	arousal	0.13858979211850886		4.102433832471434
id-1260_AU12-66_AU25-33	1	1	3	12	20	test	id-1260_AU12-66_AU25-33	valence	0.5869685313254491		0.7436007342330413
id-1260_AU12-66_AU25-33	1	1	3	12	20	test	id-1260_AU12-66_AU25-33	arousal	-0.13587234521422434		0.7436007342330413
id-1344_AU13-66_AU14-66_AU24-33_AU9-33	1	1	3	12	21	test	id-1344_AU13-66_AU14-66_AU24-33_AU9-33	valence	-0.14130723902279332		1.126898634734971
id-1344_AU13-66_AU14-66_AU24-33_AU9-33	1	1	3	12	21	test	id-1344_AU13-66_AU14-66_AU24-33_AU9-33	arousal	-0.2880493718541556		1.126898634734971
id-1293_AU14-33_AU15-33_AU43-66	1	1	3	12	22	test_extra	id-1293_AU14-33_AU15-33_AU43-66	valence	0.19565617710848307		2.235650005539356
id-1293_AU14-33_AU15-33_AU43-66	1	1	3	12	22	test_extra	id-1293_AU14-33_AU15-33_AU43-66	arousal	0.0054348938085689745		2.235650005539356
id-1318_AU22-33_AU25-33_AU26-66	1	1	3	12	23	test_extra	id-1318_AU22-33_AU25-33_AU26-66	valence	-0.0054348938085689745		1.393918090245279
id-1318_AU22-33_AU25-33_AU26-66	1	1	3	12	23	test_extra	id-1318_AU22-33_AU25-33_AU26-66	arousal	0.3043540532798626		1.393918090245279
id-1279_AU22-33_AU26-33_AU4-33	1	1	3	12	24	test	id-1279_AU22-33_AU26-33_AU4-33	valence	0.1521770266399313		1.3853176171178347
id-1279_AU22-33_AU26-33_AU4-33	1	1	3	12	24	test	id-1279_AU22-33_AU26-33_AU4-33	arousal	0.1032629823628105		1.3853176171178347
id-1291_AU15-100_AU22-66	1	1	3	12	25	test_extra	id-1291_AU15-100_AU22-66	valence	-0.0027174469042844872		5.085877650031762
id-1291_AU15-100_AU22-66	1	1	3	12	25	test_extra	id-1291_AU15-100_AU22-66	arousal	-0.5271846994311905		5.085877650031762
id-1291_AU14-100_AU15-66	1	1	3	12	26	test_extra	id-1291_AU14-100_AU15-66	valence	0.4646834206326473		1.443860722563841
id-1291_AU14-100_AU15-66	1	1	3	12	26	test_extra	id-1291_AU14-100_AU15-66	arousal	-0.5842510844211647		1.443860722563841
id-1366_AU9-33	1	1	3	12	27	test_extra	id-1366_AU9-33	valence	0.4592485268240783		1.5937429535551928
id-1366_AU9-33	1	1	3	12	27	test_extra	id-1366_AU9-33	arousal	-0.9674110979252774		1.5937429535551928
id-1355_AU10Open-100_AU2-33_AU20-66	1	1	3	12	28	train	id-1355_AU10Open-100_AU2-33_AU20-66	valence	-0.6983838544011131		0.8103470706882945
id-1355_AU10Open-100_AU2-33_AU20-66	1	1	3	12	28	train	id-1355_AU10Open-100_AU2-33_AU20-66	arousal	0.2581574559070263		0.8103470706882945
id-1273_AU12-100_AU16Open-33_AU20-100_AU22-66_AU5-66	1	1	3	12	29	test	id-1273_AU12-100_AU16Open-33_AU20-100_AU22-66_AU5-66	valence	-0.013587234521422437		3.39395853890892
id-1273_AU12-100_AU16Open-33_AU20-100_AU22-66_AU5-66	1	1	3	12	29	test	id-1273_AU12-100_AU16Open-33_AU20-100_AU22-66_AU5-66	arousal	0.013587234521422437		3.39395853890892
id-1285_AU24-66_AU9-66	1	1	3	12	30	test_extra	id-1285_AU24-66_AU9-66	valence	-0.26359234971559525		2.5440913101447222
id-1285_AU24-66_AU9-66	1	1	3	12	30	test_extra	id-1285_AU24-66_AU9-66	arousal	0.06793617260711217		2.5440913101447222
id-1373_AU11-33_AU13-100_AU16Open-66_AU43-33	1	1	3	12	31	test	id-1373_AU11-33_AU13-100_AU16Open-66_AU43-33	valence	0.1847863894913451		1.6937275287273224
id-1373_AU11-33_AU13-100_AU16Open-66_AU43-33	1	1	3	12	31	test	id-1373_AU11-33_AU13-100_AU16Open-66_AU43-33	arousal	-0.08695830093710358		1.6937275287273224
id-1269_AU13-33_AU15-100	1	1	3	12	32	test_extra	id-1269_AU13-33_AU15-100	valence	0.20652596472562101		1.151984656069544
id-1269_AU13-33_AU15-100	1	1	3	12	32	test_extra	id-1269_AU13-33_AU15-100	arousal	-0.4837055489626387		1.151984656069544
id-1378_AU1-66_AU20-66_AU7-33	1	1	3	12	33	test	id-1378_AU1-66_AU20-66_AU7-33	valence	0.20652596472562101		1.5270808348468563
id-1378_AU1-66_AU20-66_AU7-33	1	1	3	12	33	test	id-1378_AU1-66_AU20-66_AU7-33	arousal	-0.6168604472725784		1.5270808348468563
id-1363_AU16Open-66_AU4-33_AU6-66_AU9-100	1	1	3	12	34	test_extra	id-1363_AU16Open-66_AU4-33_AU6-66_AU9-100	valence	-0.30707150018414703		1.1770809404952158
id-1363_AU16Open-66_AU4-33_AU6-66_AU9-100	1	1	3	12	34	test_extra	id-1363_AU16Open-66_AU4-33_AU6-66_AU9-100	arousal	0.0054348938085689745		1.1770809404952158
id-1355_AU26-33_AU7-100	1	1	3	12	35	test_extra	id-1355_AU26-33_AU7-100	valence	-0.010869787617137949		2.6692883842006268
id-1355_AU26-33_AU7-100	1	1	3	12	35	test_extra	id-1355_AU26-33_AU7-100	arousal	0.3614204382698367		2.6692883842006268
id-1309_AU15-66_AU43-100	1	1	3	12	36	train	id-1309_AU15-66_AU43-100	valence	0.3288110754184229		3.1606560652944613
id-1309_AU15-66_AU43-100	1	1	3	12	36	train	id-1309_AU15-66_AU43-100	arousal	-0.17935149568277614		3.1606560652944613
id-1376_AU13-66_AU16Open-100	1	1	4	13	1	test_extra	id-1376_AU13-66_AU16Open-100	emotion	Geen van allen	0.0	5.520390504705574
id-1380_AU12-66_AU4-33	1	1	4	13	2	test_extra	id-1380_AU12-66_AU4-33	emotion	Walging	0.26198827146833703	1.903198795236676
id-1302_AU15-100_AU4-100_AU5-66_AU9-100	1	1	4	13	3	train	id-1302_AU15-100_AU4-100_AU5-66_AU9-100	emotion	Walging	0.5710729015510813	1.0029660342916031
id-1310_AU20-33_AU24-33	1	1	4	13	4	test_extra	id-1310_AU20-33_AU24-33	emotion	Walging	0.04975503886473868	2.453158784257539
id-1306_AU11-33_AU6-66	1	1	4	13	5	train	id-1306_AU11-33_AU6-66	emotion	Boos	0.5365877606607482	0.9363416475462144
id-1315_AU15-33_AU17-100_AU22-100_AU24-66	1	1	4	13	6	test_extra	id-1315_AU15-33_AU17-100_AU22-100_AU24-66	emotion	Geen van allen	0.0	5.095191106363926
id-1354_AU16Open-33_AU20-33_AU25-100_AU7-66	1	1	4	13	7	test_extra	id-1354_AU16Open-33_AU20-33_AU25-100_AU7-66	emotion	Bang	0.3848748334371474	0.9446598855756748
id-1362_AU26-66_AU9-66	1	1	4	13	8	test_extra	id-1362_AU26-66_AU9-66	emotion	Bang	0.33553193174162765	2.1865975457294557
id-1293_AU22-66_AU25-100_AU5-33_AU9-33	1	1	4	13	9	test	id-1293_AU22-66_AU25-100_AU5-33_AU9-33	emotion	Boos	0.4832560512747064	0.5944414476907696
id-1318_AU22-100_AU26-100_AU27i-33_AU4-33_AU6-33	1	1	4	13	10	test	id-1318_AU22-100_AU26-100_AU27i-33_AU4-33_AU6-33	emotion	Boos	0.48714933923422904	2.0863461301050847
id-1306_AU16Open-33_AU17-100_AU22-66_AU4-100	1	1	4	13	11	test_extra	id-1306_AU16Open-33_AU17-100_AU22-66_AU4-100	emotion	Geen van allen	0.0	3.2368429393391125
id-1373_AU1-33_AU26-100_AU27i-66_AU7-66	1	1	4	13	12	test_extra	id-1373_AU1-33_AU26-100_AU27i-66_AU7-66	emotion	Verrassing	0.2921922120026956	3.695047543784312
id-1356_AU10Open-66_AU22-100_AU4-100_AU7-33	1	1	4	13	13	test_extra	id-1356_AU10Open-66_AU22-100_AU4-100_AU7-33	emotion	Verdrietig	0.3113950734393845	3.4283716000863933
id-1335_AU12-100_AU20-100_AU5-33	1	1	4	13	14	test_extra	id-1335_AU12-100_AU20-100_AU5-33	emotion	Bang	0.3784960857203437	1.3614320759734255
id-1376_AU13-66_AU22-100_AU27i-33_AU6-33	1	1	4	13	15	test_extra	id-1376_AU13-66_AU22-100_AU27i-33_AU6-33	emotion	Bang	0.5381652945114088	1.070096331215609
id-1341_AU24-66_AU4-66_AU9-66	1	1	4	13	16	train	id-1341_AU24-66_AU4-66_AU9-66	emotion	Walging	0.44100027682278814	2.3281195807430777
id-1345_AU14-66_AU4-33_AU6-100	1	1	4	13	17	test_extra	id-1345_AU14-66_AU4-33_AU6-100	emotion	Blij	0.07346546813419379	0.8030273713739007
id-1273_AU16Open-33_AU17-100_AU22-100	1	1	4	13	18	train	id-1273_AU16Open-33_AU17-100_AU22-100	emotion	Blij	0.1187533101059917	0.7028870386493509
id-1266_AU25-100_AU4-100	1	1	4	13	19	train	id-1266_AU25-100_AU4-100	emotion	Verdrietig	0.07598458760666697	2.3365676167377387
id-1366_AU16Open-100_AU43-100	1	1	4	13	20	train	id-1366_AU16Open-100_AU43-100	emotion	Verdrietig	0.4195146890635135	0.7698307887403644
id-1260_AU22-100_AU25-100_AU26-100	1	1	4	13	21	test	id-1260_AU22-100_AU25-100_AU26-100	emotion	Verrassing	0.05282173268569077	2.46149151136342
id-1354_AU1-66_AU10Open-100	1	1	4	13	22	test	id-1354_AU1-66_AU10Open-100	emotion	Walging	0.2317524557701153	0.9863736291590612
id-1361_AU12-33_AU15-33_AU16Open-100_AU6-66	1	1	4	13	23	test	id-1361_AU12-33_AU15-33_AU16Open-100_AU6-66	emotion	Blij	0.018521131518752117	1.1613234682881741
id-1362_AU12-66_AU17-100_AU22-100	1	1	4	13	24	test_extra	id-1362_AU12-66_AU17-100_AU22-100	emotion	Blij	0.32817279561235385	0.7946454417797213
id-1362_AU5-33_AU6-66_AU7-33	1	1	4	13	25	test	id-1362_AU5-33_AU6-66_AU7-33	emotion	Boos	0.3450289782667943	1.0447304896297285
id-1363_AU2-66_AU24-100_AU26-33	1	1	4	13	26	train	id-1363_AU2-66_AU24-100_AU26-33	emotion	Bang	0.1754526558181937	2.003115151015664
id-1315_AU5-33_AU6-66	1	1	4	13	27	test_extra	id-1315_AU5-33_AU6-66	emotion	Boos	0.31549832354437113	1.0028890610810777
id-1307_AU16Open-33_AU2-100_AU5-33_AU6-66	1	1	4	13	28	train	id-1307_AU16Open-33_AU2-100_AU5-33_AU6-66	emotion	Boos	0.6249385936869908	1.0031951427772583
id-1274_AU17-33_AU20-100_AU24-100_AU9-100	1	1	4	13	29	test_extra	id-1274_AU17-33_AU20-100_AU24-100_AU9-100	emotion	Boos	0.5279594274891664	0.6530189646910003
id-1302_AU26-100	1	1	4	13	30	test_extra	id-1302_AU26-100	emotion	Bang	0.4552725751171634	1.7219866573723266
id-1373_AU5-33	1	1	4	13	31	train	id-1373_AU5-33	emotion	Boos	0.3001943055636085	2.5782758665445726
id-1370_AU26-100_AU4-33_AU6-33	1	1	4	13	32	train	id-1370_AU26-100_AU4-33_AU6-33	emotion	Verrassing	0.20872261106754672	0.9869387030666984
id-1361_AU1-66_AU17-66_AU6-66_AU7-100	1	1	4	13	33	test_extra	id-1361_AU1-66_AU17-66_AU6-66_AU7-100	emotion	Verdrietig	0.5763403065076022	0.6113305769904399
id-1307_AU10Open-66_AU17-33_AU22-33_AU9-100	1	1	4	13	34	test	id-1307_AU10Open-66_AU17-33_AU22-33_AU9-100	emotion	Walging	0.5076730739879488	0.8947145365564211
id-1344_AU16Open-33	1	1	4	13	35	test_extra	id-1344_AU16Open-33	emotion	Geen van allen	0.0	1.6031041030946651
id-1370_AU2-33_AU25-66_AU4-100	1	1	4	13	36	train	id-1370_AU2-33_AU25-66_AU4-100	emotion	Blij	0.08094595270728362	0.8446439174113038
id-1339_AU11-100_AU15-66_AU43-33	1	1	4	14	1	test_extra	id-1339_AU11-100_AU15-66_AU43-33	valence	0.2771795842370177		2.518972386540554
id-1339_AU11-100_AU15-66_AU43-33	1	1	4	14	1	test_extra	id-1339_AU11-100_AU15-66_AU43-33	arousal	-0.9674110979252774		2.518972386540554
id-1378_AU1-66_AU16Open-33_AU5-100	1	1	4	14	2	test_extra	id-1378_AU1-66_AU16Open-33_AU5-100	valence	0.1250025575970864		1.6438256469300538
id-1378_AU1-66_AU16Open-33_AU5-100	1	1	4	14	2	test_extra	id-1378_AU1-66_AU16Open-33_AU5-100	arousal	0.04619659737283628		1.6438256469300538
id-1376_AU1-100_AU13-33_AU14-33_AU27i-66	1	1	4	14	3	test	id-1376_AU1-100_AU13-33_AU14-33_AU27i-66	valence	-0.1277200045013709		1.6270334133150754
id-1376_AU1-100_AU13-33_AU14-33_AU27i-66	1	1	4	14	3	test	id-1376_AU1-100_AU13-33_AU14-33_AU27i-66	arousal	0.11956766378851742		1.6270334133150754
id-1260_AU1-100_AU16Open-100_AU2-33	1	1	4	14	4	test_extra	id-1260_AU1-100_AU16Open-100_AU2-33	valence	-0.05434893808568974		1.2270655307656853
id-1260_AU1-100_AU16Open-100_AU2-33	1	1	4	14	4	test_extra	id-1260_AU1-100_AU16Open-100_AU2-33	arousal	0.19837362401276756		1.2270655307656853
id-1274_AU16Open-33_AU27i-100_AU6-100	1	1	4	14	5	test_extra	id-1274_AU16Open-33_AU27i-100_AU6-100	valence	-0.31522384089700045		0.8104774723578885
id-1274_AU16Open-33_AU27i-100_AU6-100	1	1	4	14	5	test_extra	id-1274_AU16Open-33_AU27i-100_AU6-100	arousal	0.26902724352416424		0.8104774723578885
id-1360_AU1-100_AU11-66	1	1	4	14	6	test	id-1360_AU1-100_AU11-66	valence	-0.0054348938085689745		1.2104897276985866
id-1360_AU1-100_AU11-66	1	1	4	14	6	test	id-1360_AU1-100_AU11-66	arousal	-0.5108800180054835		1.2104897276985866
id-1295_AU24-100_AU25-100	1	1	4	14	7	test_extra	id-1295_AU24-100_AU25-100	valence	-0.3614204382698367		1.3602675166112022
id-1295_AU24-100_AU25-100	1	1	4	14	7	test_extra	id-1295_AU24-100_AU25-100	arousal	-0.6059906596554406		1.3602675166112022
id-1323_AU10Open-100_AU2-33_AU20-66_AU4-66	1	1	4	14	8	test_extra	id-1323_AU10Open-100_AU2-33_AU20-66_AU4-66	valence	-0.36685533207840576		1.268644042982487
id-1323_AU10Open-100_AU2-33_AU20-66_AU4-66	1	1	4	14	8	test_extra	id-1323_AU10Open-100_AU2-33_AU20-66_AU4-66	arousal	-0.029891915947129363		1.268644042982487
id-1306_AU15-66_AU27i-66_AU43-33	1	1	4	14	9	train	id-1306_AU15-66_AU27i-66_AU43-33	valence	-0.6005557658468715		3.2439404728429517
id-1306_AU15-66_AU27i-66_AU43-33	1	1	4	14	9	train	id-1306_AU15-66_AU27i-66_AU43-33	arousal	0.100545535458526		3.2439404728429517
id-1306_AU11-33_AU16Open-66	1	1	4	14	10	test_extra	id-1306_AU11-33_AU16Open-66	valence	-0.0054348938085689745		1.8688989299516845
id-1306_AU11-33_AU16Open-66	1	1	4	14	10	test_extra	id-1306_AU11-33_AU16Open-66	arousal	-0.8179515181896305		1.8688989299516845
id-1270_AU11-100_AU15-100_AU20-66_AU7-66	1	1	4	14	11	test	id-1270_AU11-100_AU15-100_AU20-66_AU7-66	valence	-0.6521872570282768		1.335522290384688
id-1270_AU11-100_AU15-100_AU20-66_AU7-66	1	1	4	14	11	test	id-1270_AU11-100_AU15-100_AU20-66_AU7-66	arousal	0.01630468142570692		1.335522290384688
id-1366_AU15-100_AU16Open-33_AU27i-33	1	1	4	14	12	test_extra	id-1366_AU15-100_AU16Open-33_AU27i-33	valence	-0.01630468142570692		1.4520600294454198
id-1366_AU15-100_AU16Open-33_AU27i-33	1	1	4	14	12	test_extra	id-1366_AU15-100_AU16Open-33_AU27i-33	arousal	0.5081625711011989		1.4520600294454198
id-1342_AU11-33_AU4-100_AU43-100_AU5-33	1	1	4	14	13	train	id-1342_AU11-33_AU4-100_AU43-100_AU5-33	valence	0.0		1.1602461452275747
id-1342_AU11-33_AU4-100_AU43-100_AU5-33	1	1	4	14	13	train	id-1342_AU11-33_AU4-100_AU43-100_AU5-33	arousal	-0.948388969595286		1.1602461452275747
id-1297_AU20-33_AU22-33_AU26-66	1	1	4	14	14	train	id-1297_AU20-33_AU22-33_AU26-66	valence	-0.2418527744813193		1.2691230880082005
id-1297_AU20-33_AU22-33_AU26-66	1	1	4	14	14	train	id-1297_AU20-33_AU22-33_AU26-66	arousal	0.3423983099398454		1.2691230880082005
id-1370_AU10Open-100_AU2-33_AU27i-66_AU5-66	1	1	4	14	15	test	id-1370_AU10Open-100_AU2-33_AU27i-66_AU5-66	valence	-0.7472978986782339		1.1437189409334678
id-1370_AU10Open-100_AU2-33_AU27i-66_AU5-66	1	1	4	14	15	test	id-1370_AU10Open-100_AU2-33_AU27i-66_AU5-66	arousal	0.3260936285141384		1.1437189409334678
id-1310_AU27i-100_AU5-33_AU7-100	1	1	4	14	16	test_extra	id-1310_AU27i-100_AU5-33_AU7-100	valence	-0.02173957523427589		2.2687889337248635
id-1310_AU27i-100_AU5-33_AU7-100	1	1	4	14	16	test_extra	id-1310_AU27i-100_AU5-33_AU7-100	arousal	0.2418527744813193		2.2687889337248635
id-1358_AU2-33_AU4-33_AU9-100	1	1	4	14	17	test_extra	id-1358_AU2-33_AU4-33_AU9-100	valence	0.0		4.135798246883496
id-1358_AU2-33_AU4-33_AU9-100	1	1	4	14	17	test_extra	id-1358_AU2-33_AU4-33_AU9-100	arousal	0.013587234521422437		4.135798246883496
id-1377_AU10Open-66_AU16Open-66_AU26-100	1	1	4	14	18	test_extra	id-1377_AU10Open-66_AU16Open-66_AU26-100	valence	-0.05163149118140525		1.6437610498069262
id-1377_AU10Open-66_AU16Open-66_AU26-100	1	1	4	14	18	test_extra	id-1377_AU10Open-66_AU16Open-66_AU26-100	arousal	0.6032732127511561		1.6437610498069262
id-1297_AU1-66_AU11-66	1	1	4	14	19	test_extra	id-1297_AU1-66_AU11-66	valence	0.06793617260711217		1.3269948663401008
id-1297_AU1-66_AU11-66	1	1	4	14	19	test_extra	id-1297_AU1-66_AU11-66	arousal	-0.9619762041167084		1.3269948663401008
id-1347_AU22-100_AU6-100	1	1	4	14	20	test_extra	id-1347_AU22-100_AU6-100	valence	-0.08695830093710358		1.1020399107583216
id-1347_AU22-100_AU6-100	1	1	4	14	20	test_extra	id-1347_AU22-100_AU6-100	arousal	-0.8587132217538979		1.1020399107583216
id-1380_AU17-33_AU27i-100_AU6-100	1	1	4	14	21	test_extra	id-1380_AU17-33_AU27i-100_AU6-100	valence	-0.32337618160985393		1.110447196228051
id-1380_AU17-33_AU27i-100_AU6-100	1	1	4	14	21	test_extra	id-1380_AU17-33_AU27i-100_AU6-100	arousal	0.09511064164995704		1.110447196228051
id-1266_AU11-66_AU17-100_AU43-66_AU6-66	1	1	4	14	22	test_extra	id-1266_AU11-66_AU17-100_AU43-66_AU6-66	valence	-0.010869787617137949		8.111156557166396
id-1266_AU11-66_AU17-100_AU43-66_AU6-66	1	1	4	14	22	test_extra	id-1266_AU11-66_AU17-100_AU43-66_AU6-66	arousal	-0.4728357613455008		8.111156557166396
id-1269_AU11-100_AU13-33_AU25-100	1	1	4	14	23	test_extra	id-1269_AU11-100_AU13-33_AU25-100	valence	0.1250025575970864		0.7770587239174347
id-1269_AU11-100_AU13-33_AU25-100	1	1	4	14	23	test_extra	id-1269_AU11-100_AU13-33_AU25-100	arousal	-0.804364283668208		0.7770587239174347
id-1362_AU17-66_AU27i-100_AU9-100	1	1	4	14	24	test_extra	id-1362_AU17-66_AU27i-100_AU9-100	valence	-0.8206689650939151		1.3271651129653037
id-1362_AU17-66_AU27i-100_AU9-100	1	1	4	14	24	test_extra	id-1362_AU17-66_AU27i-100_AU9-100	arousal	0.5625115091868887		1.3271651129653037
id-1274_AU15-100_AU16Open-66_AU24-33	1	1	4	14	25	test_extra	id-1274_AU15-100_AU16Open-66_AU24-33	valence	-0.7962119429553548		1.2186356061174592
id-1274_AU15-100_AU16Open-66_AU24-33	1	1	4	14	25	test_extra	id-1274_AU15-100_AU16Open-66_AU24-33	arousal	0.03804425665998282		1.2186356061174592
id-1356_AU13-100_AU15-33_AU16Open-100	1	1	4	14	26	train	id-1356_AU13-100_AU15-33_AU16Open-100	valence	0.4945753365797766		1.11029475909163
id-1356_AU13-100_AU15-33_AU16Open-100	1	1	4	14	26	train	id-1356_AU13-100_AU15-33_AU16Open-100	arousal	-0.07337106641568114		1.11029475909163
id-1291_AU20-33_AU24-100_AU25-33_AU27i-100	1	1	4	14	27	test	id-1291_AU20-33_AU24-100_AU25-33_AU27i-100	valence	0.07337106641568114		1.385363801036874
id-1291_AU20-33_AU24-100_AU25-33_AU27i-100	1	1	4	14	27	test	id-1291_AU20-33_AU24-100_AU25-33_AU27i-100	arousal	0.013587234521422437		1.385363801036874
id-1376_AU16Open-100_AU43-66_AU5-33	1	1	4	14	28	test_extra	id-1376_AU16Open-100_AU43-66_AU5-33	valence	0.4429438453983714		1.4770376845735882
id-1376_AU16Open-100_AU43-66_AU5-33	1	1	4	14	28	test_extra	id-1376_AU16Open-100_AU43-66_AU5-33	arousal	-0.9837157793509842		1.4770376845735882
id-1315_AU15-33_AU20-100	1	1	4	14	29	test_extra	id-1315_AU15-33_AU20-100	valence	-0.07065361951139666		0.7853881306109542
id-1315_AU15-33_AU20-100	1	1	4	14	29	test_extra	id-1315_AU15-33_AU20-100	arousal	-0.7554502393910874		0.7853881306109542
id-1266_AU13-66_AU17-100_AU2-100_AU9-33	1	1	4	14	30	test	id-1266_AU13-66_AU17-100_AU2-100_AU9-33	valence	-0.22283064615132792		1.102038401480968
id-1266_AU13-66_AU17-100_AU2-100_AU9-33	1	1	4	14	30	test	id-1266_AU13-66_AU17-100_AU2-100_AU9-33	arousal	0.23098298686418134		1.102038401480968
id-1291_AU1-100_AU14-100_AU24-66	1	1	4	14	31	test_extra	id-1291_AU1-100_AU14-100_AU24-66	valence	0.3288110754184229		0.5767342893923342
id-1291_AU1-100_AU14-100_AU24-66	1	1	4	14	31	test_extra	id-1291_AU1-100_AU14-100_AU24-66	arousal	0.17391660187420716		0.5767342893923342
id-1309_AU15-33	1	1	4	14	32	test	id-1309_AU15-33	valence	0.0		1.1354363218742949
id-1309_AU15-33	1	1	4	14	32	test	id-1309_AU15-33	arousal	-0.9864332262552687		1.1354363218742949
id-1341_AU14-33_AU4-100_AU7-66	1	1	4	14	33	train	id-1341_AU14-33_AU4-100_AU7-66	valence	-0.3940298011212506		1.1353650839264446
id-1341_AU14-33_AU4-100_AU7-66	1	1	4	14	33	train	id-1341_AU14-33_AU4-100_AU7-66	arousal	-0.03260936285141384		1.1353650839264446
id-1311_AU1-66_AU11-66_AU12-66_AU17-100	1	1	4	14	34	train	id-1311_AU1-66_AU11-66_AU12-66_AU17-100	valence	0.3777251196955437		1.2854755178414052
id-1311_AU1-66_AU11-66_AU12-66_AU17-100	1	1	4	14	34	train	id-1311_AU1-66_AU11-66_AU12-66_AU17-100	arousal	0.0		1.2854755178414052
id-1378_AU12-100_AU13-33_AU2-100_AU27i-100	1	1	4	14	35	test_extra	id-1378_AU12-100_AU13-33_AU2-100_AU27i-100	valence	0.11956766378851742		3.2855247203224285
id-1378_AU12-100_AU13-33_AU2-100_AU27i-100	1	1	4	14	35	test_extra	id-1378_AU12-100_AU13-33_AU2-100_AU27i-100	arousal	0.6005557658468715		3.2855247203224285
id-1293_AU22-100_AU24-33	1	1	4	14	36	test_extra	id-1293_AU22-100_AU24-33	valence	-0.0842408540328191		0.9771108845852724
id-1293_AU22-100_AU24-33	1	1	4	14	36	test_extra	id-1293_AU22-100_AU24-33	arousal	0.15489447354421576		0.9771108845852724
id-1341_AU10Open-66_AU11-33_AU25-33_AU9-100	1	1	4	15	1	train	id-1341_AU10Open-66_AU11-33_AU25-33_AU9-100	valence	-0.15761192044850025		2.6939355073191105
id-1341_AU10Open-66_AU11-33_AU25-33_AU9-100	1	1	4	15	1	train	id-1341_AU10Open-66_AU11-33_AU25-33_AU9-100	arousal	0.19022128329991408		2.6939355073191105
id-1270_AU12-100_AU13-100_AU14-66_AU2-100_AU25-66	1	1	4	15	2	train	id-1270_AU12-100_AU13-100_AU14-66_AU2-100_AU25-66	valence	0.4646834206326473		1.1937107757366905
id-1270_AU12-100_AU13-100_AU14-66_AU2-100_AU25-66	1	1	4	15	2	train	id-1270_AU12-100_AU13-100_AU14-66_AU2-100_AU25-66	arousal	0.16032936735278475		1.1937107757366905
id-1341_AU16Open-33_AU27i-100	1	1	4	15	3	train	id-1341_AU16Open-33_AU27i-100	valence	0.4728357613455008		2.1521081150567625
id-1341_AU16Open-33_AU27i-100	1	1	4	15	3	train	id-1341_AU16Open-33_AU27i-100	arousal	0.201091070917052		2.1521081150567625
id-1366_AU15-66_AU22-66_AU24-33_AU5-100	1	1	4	15	4	train	id-1366_AU15-66_AU22-66_AU24-33_AU5-100	valence	0.0		1.8936423450468285
id-1366_AU15-66_AU22-66_AU24-33_AU5-100	1	1	4	15	4	train	id-1366_AU15-66_AU22-66_AU24-33_AU5-100	arousal	0.33968086303556083		1.8936423450468285
id-1269_AU15-66_AU16Open-66_AU26-33_AU27i-100	1	1	4	15	5	test	id-1269_AU15-66_AU16Open-66_AU26-33_AU27i-100	valence	-0.2717446904284487		1.0437410065896984
id-1269_AU15-66_AU16Open-66_AU26-33_AU27i-100	1	1	4	15	5	test	id-1269_AU15-66_AU16Open-66_AU26-33_AU27i-100	arousal	0.3097889470884315		1.0437410065896984
id-1354_AU20-100_AU43-66_AU9-33	1	1	4	15	6	train	id-1354_AU20-100_AU43-66_AU9-33	valence	-0.013587234521422437		8.327972878865694
id-1354_AU20-100_AU43-66_AU9-33	1	1	4	15	6	train	id-1354_AU20-100_AU43-66_AU9-33	arousal	0.00815234071285346		8.327972878865694
id-1367_AU11-33_AU13-33_AU14-66_AU5-33	1	1	4	15	7	test_extra	id-1367_AU11-33_AU13-33_AU14-66_AU5-33	valence	-0.5462068277611818		2.4188827655780187
id-1367_AU11-33_AU13-33_AU14-66_AU5-33	1	1	4	15	7	test_extra	id-1367_AU11-33_AU13-33_AU14-66_AU5-33	arousal	0.04347915046855179		2.4188827655780187
id-1339_AU10Open-66_AU20-66_AU27i-100	1	1	4	15	8	train	id-1339_AU10Open-66_AU20-66_AU27i-100	valence	-0.5462068277611818		1.1437560691883846
id-1339_AU10Open-66_AU20-66_AU27i-100	1	1	4	15	8	train	id-1339_AU10Open-66_AU20-66_AU27i-100	arousal	0.13315489830993985		1.1437560691883846
