	rep	session	run	block	trial	data_split	trial_type	rating_type	rating	rating_intensity	rating_RT
id-1367_AU11-33_AU13-33_AU14-66_AU5-33	1	1	1	1	1	test_extra	id-1367_AU11-33_AU13-33_AU14-66_AU5-33	emotion	Blij	0.20815990866817344	6.2371881133367415
id-1285_AU11-66_AU4-33	1	1	1	1	2	test_extra	id-1285_AU11-66_AU4-33	emotion	Walging	0.08541142513191048	2.1864727413667424
id-1366_AU22-66_AU43-66	1	1	1	1	3	test_extra	id-1366_AU22-66_AU43-66	emotion	Geen van allen	0.0	2.961825295777089
id-1344_AU12-66_AU22-66_AU26-100_AU27i-33	1	1	1	1	4	train	id-1344_AU12-66_AU22-66_AU26-100_AU27i-33	emotion	Verrassing	0.21400040048664606	4.370347999378282
id-1260_AU12-66_AU25-33	1	1	1	1	5	test	id-1260_AU12-66_AU25-33	emotion	Blij	0.3361519919818055	0.9950908922983216
id-1307_AU10Open-66_AU17-33_AU22-33_AU9-100	1	1	1	1	6	test	id-1307_AU10Open-66_AU17-33_AU22-33_AU9-100	emotion	Boos	0.5018272662970876	1.3948467499903927
id-1270_AU14-66_AU15-100_AU43-33	1	1	1	1	7	test_extra	id-1270_AU14-66_AU15-100_AU43-33	emotion	Geen van allen	0.0	3.286523694903736
id-1264_AU10Open-33_AU25-66_AU4-66	1	1	1	1	8	test	id-1264_AU10Open-33_AU25-66_AU4-66	emotion	Bang	0.3725266999419902	5.245259479681408
id-1274_AU26-100_AU9-33	1	1	1	1	9	test_extra	id-1274_AU26-100_AU9-33	emotion	Boos	0.5738470329575014	1.7865605215156393
id-1376_AU10Open-100_AU11-66_AU25-33_AU27i-66_AU9-100	1	1	1	1	10	test_extra	id-1376_AU10Open-100_AU11-66_AU25-33_AU27i-66_AU9-100	emotion	Boos	0.6156982581146319	5.087155301433086
id-1362_AU11-33_AU13-66_AU17-33_AU2-100_AU22-33	1	1	1	1	11	test_extra	id-1362_AU11-33_AU13-66_AU17-33_AU2-100_AU22-33	emotion	Geen van allen	0.0	2.6704616185234045
id-1270_AU10Open-66_AU12-33_AU14-33	1	1	1	1	12	train	id-1270_AU10Open-66_AU12-33_AU14-33	emotion	Blij	0.12754498455558802	3.4036718543902684
id-1354_AU12-66_AU15-66_AU2-66_AU5-66_AU9-66	1	1	1	1	13	test_extra	id-1354_AU12-66_AU15-66_AU2-66_AU5-66_AU9-66	emotion	Walging	0.07747123275254958	4.9203760419331966
id-1361_AU1-66_AU17-66_AU6-66_AU7-100	1	1	1	1	14	test_extra	id-1361_AU1-66_AU17-66_AU6-66_AU7-100	emotion	Verdrietig	0.0844326325374805	2.5199530792779115
id-1335_AU1-66	1	1	1	1	15	test_extra	id-1335_AU1-66	emotion	Verrassing	0.2525160952494659	3.0616676658137294
id-1341_AU14-33_AU4-100_AU7-66	1	1	1	1	16	test_extra	id-1341_AU14-33_AU4-100_AU7-66	emotion	Boos	0.455450320523035	3.611839090663125
id-1363_AU1-100_AU25-66_AU5-66	1	1	1	1	17	test_extra	id-1363_AU1-100_AU25-66_AU5-66	emotion	Verrassing	0.5216216513373766	3.2617167478383635
id-1295_AU10Open-66_AU20-66_AU27i-66	1	1	1	1	18	test_extra	id-1295_AU10Open-66_AU20-66_AU27i-66	emotion	Bang	0.4504540977938248	10.496013972377114
id-1367_AU17-66_AU9-100	1	1	1	1	19	test_extra	id-1367_AU17-66_AU9-100	emotion	Boos	0.14798205532767536	1.7948782035382465
id-1291_AU12-33_AU17-100_AU5-66	1	1	1	1	20	train	id-1291_AU12-33_AU17-100_AU5-66	emotion	Blij	0.423138613919744	1.7363999635381333
id-1260_AU11-66_AU14-66_AU43-33	1	1	1	1	21	test_extra	id-1260_AU11-66_AU14-66_AU43-33	emotion	Verdrietig	0.056004207761997334	2.0616444227925967
id-1285_AU16Open-33_AU5-33	1	1	1	1	22	test	id-1285_AU16Open-33_AU5-33	emotion	Bang	0.38495683417273385	2.92001049256578
id-1347_AU17-66_AU26-100_AU27i-100_AU9-33	1	1	1	1	23	train	id-1347_AU17-66_AU26-100_AU27i-100_AU9-33	emotion	Verrassing	0.5400451535615541	2.8866975044220453
id-1366_AU14-33_AU25-33	1	1	1	1	24	test_extra	id-1366_AU14-33_AU25-33	emotion	Geen van allen	0.0	0.7280348898893862
id-1373_AU7-66	1	1	1	1	25	train	id-1373_AU7-66	emotion	Geen van allen	0.0	2.1200112773949518
id-1306_AU15-66_AU26-66_AU5-66	1	1	1	1	26	test_extra	id-1306_AU15-66_AU26-66_AU5-66	emotion	Verrassing	0.19626625888133328	0.9780773008642428
id-1344_AU12-66_AU20-33	1	1	1	1	27	train	id-1344_AU12-66_AU20-33	emotion	Geen van allen	0.0	4.2202237246674486
id-1289_AU20-33_AU26-66_AU9-66	1	1	1	1	28	test_extra	id-1289_AU20-33_AU26-66_AU9-66	emotion	Walging	0.23540631364922115	0.8279276701250637
id-1373_AU11-33_AU13-100_AU16Open-66_AU43-33	1	1	1	1	29	test	id-1373_AU11-33_AU13-100_AU16Open-66_AU43-33	emotion	Geen van allen	0.0	1.3530892996968762
id-1367_AU25-66_AU4-66_AU6-33	1	1	1	1	30	test	id-1367_AU25-66_AU4-66_AU6-33	emotion	Verdrietig	0.3253515496004162	2.0116432455470203
id-1279_AU11-33_AU12-100_AU15-33_AU26-66_AU43-100	1	1	1	1	31	test_extra	id-1279_AU11-33_AU12-100_AU15-33_AU26-66_AU43-100	emotion	Blij	0.5527524174613551	1.3029450420217472
id-1293_AU14-33_AU15-33_AU43-66	1	1	1	1	32	train	id-1293_AU14-33_AU15-33_AU43-66	emotion	Geen van allen	0.0	4.736818337958539
id-1356_AU12-33_AU43-33	1	1	1	1	33	test_extra	id-1356_AU12-33_AU43-33	emotion	Geen van allen	0.0	1.7783273595741775
id-1290_AU10Open-33_AU14-66_AU24-66	1	1	1	1	34	test	id-1290_AU10Open-33_AU14-66_AU24-66	emotion	Boos	0.5217676669353541	1.5199512681319902
id-1309_AU12-100_AU15-100_AU27i-100	1	1	1	1	35	train	id-1309_AU12-100_AU15-100_AU27i-100	emotion	Bang	0.2800046989529835	7.270722362987728
id-1270_AU5-33_AU7-100	1	1	1	1	36	test_extra	id-1270_AU5-33_AU7-100	emotion	Verrassing	0.06479094175465161	0.8948467499903927
id-1302_AU14-100_AU17-33_AU26-66_AU9-33	1	1	1	2	1	test_extra	id-1302_AU14-100_AU17-33_AU26-66_AU9-33	emotion	Walging	0.8146746322703152	0.9447018282298814
id-1264_AU13-100_AU15-33_AU22-33	1	1	1	2	2	test_extra	id-1264_AU13-100_AU15-33_AU22-33	emotion	Bang	0.1838833988333249	2.53650301766902
id-1310_AU16Open-100_AU27i-66_AU6-33_AU7-66	1	1	1	2	3	test_extra	id-1310_AU16Open-100_AU27i-66_AU6-33_AU7-66	emotion	Boos	0.33074572289568754	1.2698116590618156
id-1260_AU13-66_AU4-100_AU5-33_AU9-100	1	1	1	2	4	test_extra	id-1260_AU13-66_AU4-100_AU5-33_AU9-100	emotion	Walging	0.1933884965946936	2.353286110756017
id-1280_AU1-66_AU17-100_AU26-33	1	1	1	2	5	test_extra	id-1280_AU1-66_AU17-100_AU26-33	emotion	Geen van allen	0.0	3.9533207639869934
id-1362_AU26-66_AU9-66	1	1	1	2	6	train	id-1362_AU26-66_AU9-66	emotion	Geen van allen	0.0	4.103398854509578
id-1310_AU13-66	1	1	1	2	7	train	id-1310_AU13-66	emotion	Boos	0.14610774694882409	2.4701269793549727
id-1356_AU13-100_AU15-33_AU16Open-100	1	1	1	2	8	train	id-1356_AU13-100_AU15-33_AU16Open-100	emotion	Bang	0.1282956127414261	4.603550990665099
id-1341_AU12-66_AU13-33_AU14-100_AU15-33_AU22-100	1	1	1	2	9	test_extra	id-1341_AU12-66_AU13-33_AU14-100_AU15-33_AU22-100	emotion	Blij	0.5725768483245918	0.6780409572238568
id-1266_AU14-66_AU16Open-66_AU27i-33_AU43-66	1	1	1	2	10	train	id-1266_AU14-66_AU16Open-66_AU27i-33_AU43-66	emotion	Walging	0.5814967454415408	1.6865714487539665
id-1294_AU16Open-66_AU7-100	1	1	1	2	11	train	id-1294_AU16Open-66_AU7-100	emotion	Geen van allen	0.0	1.019764720229432
id-1354_AU10Open-33_AU17-66_AU6-66_AU7-100	1	1	1	2	12	test_extra	id-1354_AU10Open-33_AU17-66_AU6-66_AU7-100	emotion	Walging	0.7451452091575318	0.7696900105111126
id-1380_AU12-33_AU13-33_AU22-33_AU9-33	1	1	1	2	13	test_extra	id-1380_AU12-33_AU13-33_AU22-33_AU9-33	emotion	Blij	0.15522973851946872	4.103636718180496
id-1279_AU1-100_AU15-66_AU16Open-66_AU27i-100_AU43-33	1	1	1	2	14	test_extra	id-1279_AU1-100_AU15-66_AU16Open-66_AU27i-100_AU43-33	emotion	Geen van allen	0.0	1.4113179035884968
id-1274_AU15-100_AU16Open-66_AU24-33	1	1	1	2	15	test_extra	id-1274_AU15-100_AU16Open-66_AU24-33	emotion	Bang	0.15518289791991635	1.986481615975208
id-1315_AU15-33_AU20-100	1	1	1	2	16	test_extra	id-1315_AU15-33_AU20-100	emotion	Bang	0.21382873550964002	1.3114163694881429
id-1318_AU2-66_AU22-100_AU5-33_AU7-66	1	1	1	2	17	train	id-1318_AU2-66_AU22-100_AU5-33_AU7-66	emotion	Verdrietig	0.25165199793632675	1.1116492223263776
id-1285_AU24-66_AU9-66	1	1	1	2	18	test_extra	id-1285_AU24-66_AU9-66	emotion	Walging	0.4750385038654791	1.203035055910732
id-1318_AU13-33_AU20-66_AU5-100_AU6-66	1	1	1	2	19	test_extra	id-1318_AU13-33_AU20-66_AU5-100_AU6-66	emotion	Bang	0.5113446558511504	1.3363014976384875
id-1355_AU13-66_AU2-66_AU6-33	1	1	1	2	20	train	id-1355_AU13-66_AU2-66_AU6-33	emotion	Geen van allen	0.0	1.5698941868904512
id-1367_AU14-66_AU2-100_AU20-66_AU9-33	1	1	1	2	21	test_extra	id-1367_AU14-66_AU2-100_AU20-66_AU9-33	emotion	Boos	0.5161382463231775	1.2364805594734207
id-1302_AU15-66_AU24-100_AU25-100_AU43-33	1	1	1	2	22	test	id-1302_AU15-66_AU24-100_AU25-100_AU43-33	emotion	Geen van allen	0.0	0.7781073054939043
id-1266_AU13-66_AU17-100_AU2-100_AU9-33	1	1	1	2	23	test	id-1266_AU13-66_AU17-100_AU2-100_AU9-33	emotion	Geen van allen	0.0	4.570286299716828
id-1373_AU1-66_AU24-33_AU26-66_AU7-33	1	1	1	2	24	train	id-1373_AU1-66_AU24-33_AU26-66_AU7-33	emotion	Bang	0.38791890948210256	2.5532881030158023
id-1310_AU12-33_AU14-33_AU22-100_AU6-100	1	1	1	2	25	test	id-1310_AU12-33_AU14-33_AU22-100_AU6-100	emotion	Boos	0.5421469456267175	2.6702056434078263
id-1358_AU12-33_AU25-33_AU6-33_AU9-33	1	1	1	2	26	train	id-1358_AU12-33_AU25-33_AU6-33_AU9-33	emotion	Walging	0.2527078750888099	1.236394228246354
id-1273_AU1-33_AU25-100_AU4-33	1	1	1	2	27	test_extra	id-1273_AU1-33_AU25-100_AU4-33	emotion	Geen van allen	0.0	1.027762433357566
id-1354_AU14-100_AU2-100_AU20-100_AU4-66	1	1	1	2	28	test_extra	id-1354_AU14-100_AU2-100_AU20-100_AU4-66	emotion	Bang	0.5010675411991343	0.9948243521721452
id-1297_AU22-66_AU9-100	1	1	1	2	29	test_extra	id-1297_AU22-66_AU9-100	emotion	Boos	0.547930162358978	1.1612353455748234
id-1358_AU11-100_AU12-100_AU14-100_AU16Open-66_AU6-100	1	1	1	2	30	test	id-1358_AU11-100_AU12-100_AU14-100_AU16Open-66_AU6-100	emotion	Blij	0.6196835671630843	1.5614835327723997
id-1273_AU1-33_AU13-33_AU26-33	1	1	1	2	31	test	id-1273_AU1-33_AU13-33_AU26-33	emotion	Verrassing	0.3742017955547785	1.0781348952659755
id-1377_AU13-66_AU5-100	1	1	1	2	32	train	id-1377_AU13-66_AU5-100	emotion	Geen van allen	0.0	2.1199895436584484
id-1342_AU10Open-66_AU25-66_AU26-33_AU5-100	1	1	1	2	33	train	id-1342_AU10Open-66_AU25-66_AU26-33_AU5-100	emotion	Boos	0.7089942606217928	6.462390674780183
id-1309_AU15-33	1	1	1	2	34	test	id-1309_AU15-33	emotion	Geen van allen	0.0	2.66183181589804
id-1360_AU1-100_AU11-66	1	1	1	2	35	test	id-1360_AU1-100_AU11-66	emotion	Verrassing	0.15915573339851682	2.553185169621429
id-1279_AU1-100_AU10Open-33_AU25-100_AU5-100	1	1	1	2	36	test_extra	id-1279_AU1-100_AU10Open-33_AU25-100_AU5-100	emotion	Boos	0.33594205724763604	1.9865175370105133
id-1358_AU13-33_AU15-33	1	1	1	3	1	test_extra	id-1358_AU13-33_AU15-33	emotion	Verrassing	0.27865251209973346	2.821538555344887
id-1260_AU22-100_AU25-100_AU26-100	1	1	1	3	2	test	id-1260_AU22-100_AU25-100_AU26-100	emotion	Verrassing	0.6947426898195433	1.2948954094135845
id-1289_AU1-100_AU10Open-66_AU12-66_AU17-100_AU25-100	1	1	1	3	3	test_extra	id-1289_AU1-100_AU10Open-66_AU12-66_AU17-100_AU25-100	emotion	Blij	0.4414549719946964	2.653285325923207
id-1294_AU11-66_AU20-33_AU25-33	1	1	1	3	4	test	id-1294_AU11-66_AU20-33_AU25-33	emotion	Geen van allen	0.0	0.9031028530989716
id-1311_AU13-33_AU17-66_AU26-33_AU6-100	1	1	1	3	5	test_extra	id-1311_AU13-33_AU17-66_AU26-33_AU6-100	emotion	Blij	0.26855041027084536	0.9613359848481196
id-1273_AU15-100_AU2-100	1	1	1	3	6	train	id-1273_AU15-100_AU2-100	emotion	Verrassing	0.3763902038397569	2.5367070733045693
id-1274_AU16Open-33_AU27i-100_AU6-100	1	1	1	3	7	train	id-1274_AU16Open-33_AU27i-100_AU6-100	emotion	Boos	0.6122669717637427	1.4446502106075056
id-1311_AU16Open-100_AU43-100_AU6-66_AU9-100	1	1	1	3	8	test	id-1311_AU16Open-100_AU43-100_AU6-66_AU9-100	emotion	Boos	0.5850818657330509	1.4448376640830247
id-1306_AU22-66_AU25-33_AU43-33	1	1	1	3	9	train	id-1306_AU22-66_AU25-33_AU43-33	emotion	Geen van allen	0.0	1.8865372181171551
id-1339_AU20-100_AU43-33_AU9-100	1	1	1	3	10	train	id-1339_AU20-100_AU43-33_AU9-100	emotion	Geen van allen	0.0	6.837269554478552
id-1293_AU22-66_AU25-100_AU5-33_AU9-33	1	1	1	3	11	test	id-1293_AU22-66_AU25-100_AU5-33_AU9-33	emotion	Walging	0.3275935663403016	2.128249570912885
id-1315_AU15-100_AU2-33_AU25-33_AU26-66	1	1	1	3	12	train	id-1315_AU15-100_AU2-33_AU25-33_AU26-66	emotion	Verrassing	0.504258597953151	1.5779842683987226
id-1360_AU2-100_AU26-33	1	1	1	3	13	test_extra	id-1360_AU2-100_AU26-33	emotion	Verrassing	0.5970796162158184	1.3447963699836691
id-1378_AU25-33_AU4-66_AU43-33_AU7-33	1	1	1	3	14	train	id-1378_AU25-33_AU4-66_AU43-33_AU7-33	emotion	Geen van allen	0.0	1.5448345851364138
id-1342_AU14-33_AU20-33_AU43-100	1	1	1	3	15	test_extra	id-1342_AU14-33_AU20-33_AU43-100	emotion	Verdrietig	0.0989250578117076	1.9700062363772304
id-1363_AU13-66_AU22-100_AU7-66	1	1	1	3	16	test_extra	id-1363_AU13-66_AU22-100_AU7-66	emotion	Verdrietig	0.3153940829226339	0.9696808340413554
id-1363_AU7-66	1	1	1	3	17	test_extra	id-1363_AU7-66	emotion	Geen van allen	0.0	0.7946204172731086
id-1260_AU24-66_AU26-66_AU5-33_AU6-66	1	1	1	3	18	train	id-1260_AU24-66_AU26-66_AU5-33_AU6-66	emotion	Geen van allen	0.0	3.1699901171887177
id-1290_AU10Open-33_AU2-66_AU9-33	1	1	1	3	19	test_extra	id-1290_AU10Open-33_AU2-66_AU9-33	emotion	Boos	0.2732250492429813	1.378198406073352
id-1294_AU12-33_AU13-33_AU15-100_AU22-33	1	1	1	3	20	train	id-1294_AU12-33_AU13-33_AU15-100_AU22-33	emotion	Blij	0.15924826591329908	0.953078976170218
id-1310_AU27i-100_AU5-33_AU7-100	1	1	1	3	21	train	id-1310_AU27i-100_AU5-33_AU7-100	emotion	Boos	0.517990502116723	1.3040102969644067
id-1323_AU2-33_AU22-66	1	1	1	3	22	train	id-1323_AU2-33_AU22-66	emotion	Verrassing	0.27556088480822444	1.5031861053794269
id-1370_AU10Open-100_AU2-33_AU27i-66_AU5-66	1	1	1	3	23	test	id-1370_AU10Open-100_AU2-33_AU27i-66_AU5-66	emotion	Boos	0.4293094280923071	1.6448641067945573
id-1291_AU10Open-33_AU11-100_AU15-100	1	1	1	3	24	test_extra	id-1291_AU10Open-33_AU11-100_AU15-100	emotion	Walging	0.7198089608605045	1.8365290981528235
id-1280_AU11-33_AU17-66_AU2-66_AU26-66_AU9-66	1	1	1	3	25	test	id-1280_AU11-33_AU17-66_AU2-66_AU26-66_AU9-66	emotion	Walging	0.7448640724156328	1.719953864107083
id-1377_AU2-66_AU25-100_AU9-100	1	1	1	3	26	test_extra	id-1377_AU2-66_AU25-100_AU9-100	emotion	Boos	0.3171631191413173	2.6949811972990574
id-1355_AU10Open-100_AU12-100_AU27i-66	1	1	1	3	27	test_extra	id-1355_AU10Open-100_AU12-100_AU27i-66	emotion	Bang	0.3060990275980208	1.9866917087601903
id-1354_AU12-33_AU13-33	1	1	1	3	28	test_extra	id-1354_AU12-33_AU13-33	emotion	Blij	0.1122164476221872	1.703050148786133
id-1270_AU13-100_AU17-100_AU25-100	1	1	1	3	29	train	id-1270_AU13-100_AU17-100_AU25-100	emotion	Geen van allen	0.0	0.7780692714550241
id-1358_AU14-100	1	1	1	3	30	test_extra	id-1358_AU14-100	emotion	Blij	0.2814761781847695	1.2282099672120241
id-1269_AU15-66_AU16Open-66_AU26-33_AU27i-100	1	1	1	3	31	test	id-1269_AU15-66_AU16Open-66_AU26-33_AU27i-100	emotion	Verrassing	0.597645300684411	1.2864089890717878
id-1264_AU10Open-33_AU11-100_AU2-66_AU20-100	1	1	1	3	32	test_extra	id-1264_AU10Open-33_AU11-100_AU2-66_AU20-100	emotion	Geen van allen	0.0	1.594927225185529
id-1376_AU16Open-66_AU17-66_AU6-33	1	1	1	3	33	test_extra	id-1376_AU16Open-66_AU17-66_AU6-33	emotion	Verdrietig	0.4231641755710024	1.1614122340433823
id-1323_AU26-100	1	1	1	3	34	train	id-1323_AU26-100	emotion	Verrassing	0.5664808616964815	1.303358586726972
id-1280_AU12-100_AU14-33_AU27i-66_AU4-66	1	1	1	3	35	test_extra	id-1280_AU12-100_AU14-33_AU27i-66_AU4-66	emotion	Geen van allen	0.0	4.261925935050385
id-1360_AU10Open-66_AU20-33	1	1	1	3	36	test_extra	id-1360_AU10Open-66_AU20-33	emotion	Bang	0.2604967213440023	1.3778868891859022
id-1279_AU11-33_AU12-100_AU15-33_AU26-66_AU43-100	1	1	1	4	1	test_extra	id-1279_AU11-33_AU12-100_AU15-33_AU26-66_AU43-100	valence	0.7472978986782339		4.227537428814685
id-1279_AU11-33_AU12-100_AU15-33_AU26-66_AU43-100	1	1	1	4	1	test_extra	id-1279_AU11-33_AU12-100_AU15-33_AU26-66_AU43-100	arousal	0.7038187482096819		4.227537428814685
id-1367_AU25-66_AU4-66_AU6-33	1	1	1	4	2	test	id-1367_AU25-66_AU4-66_AU6-33	valence	-0.0842408540328191		3.1856785544150625
id-1367_AU25-66_AU4-66_AU6-33	1	1	1	4	2	test	id-1367_AU25-66_AU4-66_AU6-33	arousal	-0.9375191819781479		3.1856785544150625
id-1344_AU12-66_AU22-66_AU26-100_AU27i-33	1	1	1	4	3	train	id-1344_AU12-66_AU22-66_AU26-100_AU27i-33	valence	-0.013587234521422437		1.7772023368597731
id-1344_AU12-66_AU22-66_AU26-100_AU27i-33	1	1	1	4	3	train	id-1344_AU12-66_AU22-66_AU26-100_AU27i-33	arousal	0.26902724352416424		1.7772023368597731
id-1307_AU10Open-66_AU17-33_AU22-33_AU9-100	1	1	1	4	4	test	id-1307_AU10Open-66_AU17-33_AU22-33_AU9-100	valence	-0.5516417215697509		1.2522000880198902
id-1307_AU10Open-66_AU17-33_AU22-33_AU9-100	1	1	1	4	4	test	id-1307_AU10Open-66_AU17-33_AU22-33_AU9-100	arousal	0.36685533207840576		1.2522000880198902
id-1270_AU10Open-66_AU12-33_AU14-33	1	1	1	4	5	train	id-1270_AU10Open-66_AU12-33_AU14-33	valence	0.5733812968040267		2.052154930144752
id-1270_AU10Open-66_AU12-33_AU14-33	1	1	1	4	5	train	id-1270_AU10Open-66_AU12-33_AU14-33	arousal	0.3478332037484143		2.052154930144752
id-1260_AU12-66_AU25-33	1	1	1	4	6	test	id-1260_AU12-66_AU25-33	valence	0.7418630048696649		7.602911052872512
id-1260_AU12-66_AU25-33	1	1	1	4	6	test	id-1260_AU12-66_AU25-33	arousal	0.07608851331996565		7.602911052872512
id-1347_AU17-66_AU26-100_AU27i-100_AU9-33	1	1	1	4	7	train	id-1347_AU17-66_AU26-100_AU27i-100_AU9-33	valence	-0.2527225620984573		3.2440544647433853
id-1347_AU17-66_AU26-100_AU27i-100_AU9-33	1	1	1	4	7	train	id-1347_AU17-66_AU26-100_AU27i-100_AU9-33	arousal	0.08695830093710358		3.2440544647433853
id-1295_AU10Open-66_AU20-66_AU27i-66	1	1	1	4	8	test_extra	id-1295_AU10Open-66_AU20-66_AU27i-66	valence	-0.12228511069280193		3.97766375615538
id-1295_AU10Open-66_AU20-66_AU27i-66	1	1	1	4	8	test_extra	id-1295_AU10Open-66_AU20-66_AU27i-66	arousal	0.15489447354421576		3.97766375615538
id-1260_AU11-66_AU14-66_AU43-33	1	1	1	4	9	test_extra	id-1260_AU11-66_AU14-66_AU43-33	valence	0.0		0.6358711696557293
id-1260_AU11-66_AU14-66_AU43-33	1	1	1	4	9	test_extra	id-1260_AU11-66_AU14-66_AU43-33	arousal	0.0		0.6358711696557293
id-1366_AU14-33_AU25-33	1	1	1	4	10	test_extra	id-1366_AU14-33_AU25-33	valence	0.7907770491467857		2.4689047585416115
id-1366_AU14-33_AU25-33	1	1	1	4	10	test_extra	id-1366_AU14-33_AU25-33	arousal	-0.0407617035642673		2.4689047585416115
id-1362_AU11-33_AU13-66_AU17-33_AU2-100_AU22-33	1	1	1	4	11	test_extra	id-1362_AU11-33_AU13-66_AU17-33_AU2-100_AU22-33	valence	0.16032936735278475		1.5771535566927923
id-1362_AU11-33_AU13-66_AU17-33_AU2-100_AU22-33	1	1	1	4	11	test_extra	id-1362_AU11-33_AU13-66_AU17-33_AU2-100_AU22-33	arousal	0.04619659737283628		1.5771535566927923
id-1285_AU11-66_AU4-33	1	1	1	4	12	test_extra	id-1285_AU11-66_AU4-33	valence	-0.4402263984940868		0.8854390607193636
id-1285_AU11-66_AU4-33	1	1	1	4	12	test_extra	id-1285_AU11-66_AU4-33	arousal	-0.08695830093710358		0.8854390607193636
id-1366_AU22-66_AU43-66	1	1	1	4	13	test_extra	id-1366_AU22-66_AU43-66	valence	-0.11141532307566396		4.66919200609118
id-1366_AU22-66_AU43-66	1	1	1	4	13	test_extra	id-1366_AU22-66_AU43-66	arousal	-0.11956766378851742		4.66919200609118
id-1270_AU5-33_AU7-100	1	1	1	4	14	test_extra	id-1270_AU5-33_AU7-100	valence	0.105980429267095		4.810966903747612
id-1270_AU5-33_AU7-100	1	1	1	4	14	test_extra	id-1270_AU5-33_AU7-100	arousal	-0.418486823259811		4.810966903747612
id-1344_AU12-66_AU20-33	1	1	1	4	15	train	id-1344_AU12-66_AU20-33	valence	-0.16032936735278475		5.994437370918603
id-1344_AU12-66_AU20-33	1	1	1	4	15	train	id-1344_AU12-66_AU20-33	arousal	-0.1684817080656382		5.994437370918603
id-1264_AU10Open-33_AU25-66_AU4-66	1	1	1	4	16	test	id-1264_AU10Open-33_AU25-66_AU4-66	valence	-0.3179412878012849		2.0688775309972702
id-1264_AU10Open-33_AU25-66_AU4-66	1	1	1	4	16	test	id-1264_AU10Open-33_AU25-66_AU4-66	arousal	0.13315489830993985		2.0688775309972702
id-1354_AU12-66_AU15-66_AU2-66_AU5-66_AU9-66	1	1	1	4	17	test_extra	id-1354_AU12-66_AU15-66_AU2-66_AU5-66_AU9-66	valence	-0.7581676862953719		1.0859089320219937
id-1354_AU12-66_AU15-66_AU2-66_AU5-66_AU9-66	1	1	1	4	17	test_extra	id-1354_AU12-66_AU15-66_AU2-66_AU5-66_AU9-66	arousal	0.7799072615296476		1.0859089320219937
id-1306_AU15-66_AU26-66_AU5-66	1	1	1	4	18	test_extra	id-1306_AU15-66_AU26-66_AU5-66	valence	-0.3179412878012849		2.1356622843013606
id-1306_AU15-66_AU26-66_AU5-66	1	1	1	4	18	test_extra	id-1306_AU15-66_AU26-66_AU5-66	arousal	0.201091070917052		2.1356622843013606
id-1376_AU10Open-100_AU11-66_AU25-33_AU27i-66_AU9-100	1	1	1	4	19	test_extra	id-1376_AU10Open-100_AU11-66_AU25-33_AU27i-66_AU9-100	valence	-0.28533192494987114		1.2021261631307425
id-1376_AU10Open-100_AU11-66_AU25-33_AU27i-66_AU9-100	1	1	1	4	19	test_extra	id-1376_AU10Open-100_AU11-66_AU25-33_AU27i-66_AU9-100	arousal	0.2472876682898883		1.2021261631307425
id-1373_AU11-33_AU13-100_AU16Open-66_AU43-33	1	1	1	4	20	test	id-1373_AU11-33_AU13-100_AU16Open-66_AU43-33	valence	-0.1711991549699227		3.502289588755957
id-1373_AU11-33_AU13-100_AU16Open-66_AU43-33	1	1	1	4	20	test	id-1373_AU11-33_AU13-100_AU16Open-66_AU43-33	arousal	-0.07337106641568114		3.502289588755957
id-1291_AU12-33_AU17-100_AU5-66	1	1	1	4	21	train	id-1291_AU12-33_AU17-100_AU5-66	valence	0.8233864119981995		1.068819574371446
id-1291_AU12-33_AU17-100_AU5-66	1	1	1	4	21	train	id-1291_AU12-33_AU17-100_AU5-66	arousal	0.4429438453983714		1.068819574371446
id-1335_AU1-66	1	1	1	4	22	test_extra	id-1335_AU1-66	valence	0.3315285223227074		1.3439403022566694
id-1335_AU1-66	1	1	1	4	22	test_extra	id-1335_AU1-66	arousal	-0.3532680975569833		1.3439403022566694
id-1293_AU14-33_AU15-33_AU43-66	1	1	1	4	23	train	id-1293_AU14-33_AU15-33_AU43-66	valence	-0.0027174469042844872		1.2353485940402609
id-1293_AU14-33_AU15-33_AU43-66	1	1	1	4	23	train	id-1293_AU14-33_AU15-33_AU43-66	arousal	-0.10869787617137948		1.2353485940402609
id-1285_AU16Open-33_AU5-33	1	1	1	4	24	test	id-1285_AU16Open-33_AU5-33	valence	-0.0054348938085689745		0.7270435900281882
id-1285_AU16Open-33_AU5-33	1	1	1	4	24	test	id-1285_AU16Open-33_AU5-33	arousal	-0.9565413103081394		0.7270435900281882
id-1341_AU14-33_AU4-100_AU7-66	1	1	1	4	25	test_extra	id-1341_AU14-33_AU4-100_AU7-66	valence	-0.07880596022425011		1.952127521490184
id-1341_AU14-33_AU4-100_AU7-66	1	1	1	4	25	test_extra	id-1341_AU14-33_AU4-100_AU7-66	arousal	0.8478434341367599		1.952127521490184
id-1270_AU14-66_AU15-100_AU43-33	1	1	1	4	26	test_extra	id-1270_AU14-66_AU15-100_AU43-33	valence	0.2418527744813193		2.044315692179225
id-1270_AU14-66_AU15-100_AU43-33	1	1	1	4	26	test_extra	id-1270_AU14-66_AU15-100_AU43-33	arousal	0.2717446904284487		2.044315692179225
id-1363_AU1-100_AU25-66_AU5-66	1	1	1	4	27	test_extra	id-1363_AU1-100_AU25-66_AU5-66	valence	-0.14945957973564675		2.102188707995083
id-1363_AU1-100_AU25-66_AU5-66	1	1	1	4	27	test_extra	id-1363_AU1-100_AU25-66_AU5-66	arousal	0.21196085853419		2.102188707995083
id-1356_AU12-33_AU43-33	1	1	1	4	28	test_extra	id-1356_AU12-33_AU43-33	valence	0.26359234971559525		2.152221580272453
id-1356_AU12-33_AU43-33	1	1	1	4	28	test_extra	id-1356_AU12-33_AU43-33	arousal	-0.1847863894913451		2.152221580272453
id-1367_AU17-66_AU9-100	1	1	1	4	29	test_extra	id-1367_AU17-66_AU9-100	valence	-0.3994646949298196		2.5604874031887452
id-1367_AU17-66_AU9-100	1	1	1	4	29	test_extra	id-1367_AU17-66_AU9-100	arousal	0.13315489830993985		2.5604874031887452
id-1373_AU7-66	1	1	1	4	30	train	id-1373_AU7-66	valence	-0.24457022138560386		2.0688886997268128
id-1373_AU7-66	1	1	1	4	30	train	id-1373_AU7-66	arousal	0.13858979211850886		2.0688886997268128
id-1367_AU11-33_AU13-33_AU14-66_AU5-33	1	1	1	4	31	test_extra	id-1367_AU11-33_AU13-33_AU14-66_AU5-33	valence	0.21196085853419		2.5855883594122133
id-1367_AU11-33_AU13-33_AU14-66_AU5-33	1	1	1	4	31	test_extra	id-1367_AU11-33_AU13-33_AU14-66_AU5-33	arousal	0.2282655399598969		2.5855883594122133
id-1274_AU26-100_AU9-33	1	1	1	4	32	test_extra	id-1274_AU26-100_AU9-33	valence	-0.6277302348897165		1.5437672171938177
id-1274_AU26-100_AU9-33	1	1	1	4	32	test_extra	id-1274_AU26-100_AU9-33	arousal	0.201091070917052		1.5437672171938177
id-1309_AU12-100_AU15-100_AU27i-100	1	1	1	4	33	train	id-1309_AU12-100_AU15-100_AU27i-100	valence	-0.7527327924868029		0.8351825120698777
id-1309_AU12-100_AU15-100_AU27i-100	1	1	1	4	33	train	id-1309_AU12-100_AU15-100_AU27i-100	arousal	0.7826247084339323		0.8351825120698777
id-1289_AU20-33_AU26-66_AU9-66	1	1	1	4	34	test_extra	id-1289_AU20-33_AU26-66_AU9-66	valence	-0.17663404877849165		2.6357700474109147
id-1289_AU20-33_AU26-66_AU9-66	1	1	1	4	34	test_extra	id-1289_AU20-33_AU26-66_AU9-66	arousal	-0.4483787392069404		2.6357700474109147
id-1361_AU1-66_AU17-66_AU6-66_AU7-100	1	1	1	4	35	test_extra	id-1361_AU1-66_AU17-66_AU6-66_AU7-100	valence	0.0027174469042844872		3.3356455613975413
id-1361_AU1-66_AU17-66_AU6-66_AU7-100	1	1	1	4	35	test_extra	id-1361_AU1-66_AU17-66_AU6-66_AU7-100	arousal	0.09239319474567256		3.3356455613975413
id-1290_AU10Open-33_AU14-66_AU24-66	1	1	1	4	36	test	id-1290_AU10Open-33_AU14-66_AU24-66	valence	-0.5163149118140525		2.4605433071847083
id-1290_AU10Open-33_AU14-66_AU24-66	1	1	1	4	36	test	id-1290_AU10Open-33_AU14-66_AU24-66	arousal	0.1684817080656382		2.4605433071847083
id-1366_AU15-66_AU24-33_AU4-100_AU9-100	1	1	2	5	1	test_extra	id-1366_AU15-66_AU24-33_AU4-100_AU9-100	valence	-0.418486823259811		3.3955334756865336
id-1366_AU15-66_AU24-33_AU4-100_AU9-100	1	1	2	5	1	test_extra	id-1366_AU15-66_AU24-33_AU4-100_AU9-100	arousal	0.4429438453983714		3.3955334756865336
id-1356_AU6-33	1	1	2	5	2	test	id-1356_AU6-33	valence	-0.12228511069280193		0.6854367666019243
id-1356_AU6-33	1	1	2	5	2	test	id-1356_AU6-33	arousal	-0.00815234071285346		0.6854367666019243
id-1293_AU10Open-66_AU26-100_AU27i-66_AU6-100	1	1	2	5	3	test_extra	id-1293_AU10Open-66_AU26-100_AU27i-66_AU6-100	valence	-0.057066384989974225		4.585733552841703
id-1293_AU10Open-66_AU26-100_AU27i-66_AU6-100	1	1	2	5	3	test_extra	id-1293_AU10Open-66_AU26-100_AU27i-66_AU6-100	arousal	0.6603395977411303		4.585733552841703
id-1264_AU22-100_AU24-66_AU25-100_AU9-100	1	1	2	5	4	train	id-1264_AU22-100_AU24-66_AU25-100_AU9-100	valence	-0.07337106641568114		1.551940007640951
id-1264_AU22-100_AU24-66_AU25-100_AU9-100	1	1	2	5	4	train	id-1264_AU22-100_AU24-66_AU25-100_AU9-100	arousal	0.5625115091868887		1.551940007640951
id-1291_AU4-100_AU43-33_AU7-66	1	1	2	5	5	test	id-1291_AU4-100_AU43-33_AU7-66	valence	-0.0842408540328191		4.2777982034640445
id-1291_AU4-100_AU43-33_AU7-66	1	1	2	5	5	test	id-1291_AU4-100_AU43-33_AU7-66	arousal	0.21467830543847446		4.2777982034640445
id-1273_AU22-33_AU24-66_AU9-66	1	1	2	5	6	train	id-1273_AU22-33_AU24-66_AU9-66	valence	-0.00815234071285346		2.5022983426206338
id-1273_AU22-33_AU24-66_AU9-66	1	1	2	5	6	train	id-1273_AU22-33_AU24-66_AU9-66	arousal	-0.19565617710848307		2.5022983426206338
id-1362_AU5-33_AU6-66_AU7-33	1	1	2	5	7	test	id-1362_AU5-33_AU6-66_AU7-33	valence	-0.0027174469042844872		0.8185885024940944
id-1362_AU5-33_AU6-66_AU7-33	1	1	2	5	7	test	id-1362_AU5-33_AU6-66_AU7-33	arousal	0.03260936285141384		0.8185885024940944
id-1266_AU15-33	1	1	2	5	8	test_extra	id-1266_AU15-33	valence	-0.0027174469042844872		2.8856062897430093
id-1266_AU15-33	1	1	2	5	8	test_extra	id-1266_AU15-33	arousal	-0.9701285448295618		2.8856062897430093
id-1376_AU16Open-100_AU43-66_AU5-33	1	1	2	5	9	train	id-1376_AU16Open-100_AU43-66_AU5-33	valence	0.07608851331996565		1.310397902452678
id-1376_AU16Open-100_AU43-66_AU5-33	1	1	2	5	9	train	id-1376_AU16Open-100_AU43-66_AU5-33	arousal	-0.7853421553382167		1.310397902452678
id-1290_AU22-33	1	1	2	5	10	test_extra	id-1290_AU22-33	valence	-0.01902212832999141		1.5770418694410182
id-1290_AU22-33	1	1	2	5	10	test_extra	id-1290_AU22-33	arousal	-0.948388969595286		1.5770418694410182
id-1306_AU12-100_AU14-33_AU17-33_AU27i-33	1	1	2	5	11	test_extra	id-1306_AU12-100_AU14-33_AU17-33_AU27i-33	valence	-0.11413276997994845		1.3270067030462087
id-1306_AU12-100_AU14-33_AU17-33_AU27i-33	1	1	2	5	11	test_extra	id-1306_AU12-100_AU14-33_AU17-33_AU27i-33	arousal	0.2608749028113107		1.3270067030462087
id-1377_AU13-66_AU14-33_AU22-33_AU7-100_AU9-66	1	1	2	5	12	test_extra	id-1377_AU13-66_AU14-33_AU22-33_AU7-100_AU9-66	valence	0.07065361951139666		1.1187655116991664
id-1377_AU13-66_AU14-33_AU22-33_AU7-100_AU9-66	1	1	2	5	12	test_extra	id-1377_AU13-66_AU14-33_AU22-33_AU7-100_AU9-66	arousal	0.33968086303556083		1.1187655116991664
id-1306_AU16Open-33_AU17-100_AU22-66_AU4-100	1	1	2	5	13	test_extra	id-1306_AU16Open-33_AU17-100_AU22-66_AU4-100	valence	0.05978383189425871		2.093746660702891
id-1306_AU16Open-33_AU17-100_AU22-66_AU4-100	1	1	2	5	13	test_extra	id-1306_AU16Open-33_AU17-100_AU22-66_AU4-100	arousal	0.3885949073126817		2.093746660702891
id-1370_AU25-66	1	1	2	5	14	test_extra	id-1370_AU25-66	valence	0.05978383189425871		1.4936172242269097
id-1370_AU25-66	1	1	2	5	14	test_extra	id-1370_AU25-66	arousal	-0.8886051377010272		1.4936172242269097
id-1347_AU4-33_AU43-66_AU9-66	1	1	2	5	15	test_extra	id-1347_AU4-33_AU43-66_AU9-66	valence	-0.17663404877849165		1.477092340006493
id-1347_AU4-33_AU43-66_AU9-66	1	1	2	5	15	test_extra	id-1347_AU4-33_AU43-66_AU9-66	arousal	-0.3614204382698367		1.477092340006493
id-1339_AU14-100_AU15-66_AU26-33	1	1	2	5	16	test_extra	id-1339_AU14-100_AU15-66_AU26-33	valence	-0.17663404877849165		4.1359683677546855
id-1339_AU14-100_AU15-66_AU26-33	1	1	2	5	16	test_extra	id-1339_AU14-100_AU15-66_AU26-33	arousal	-0.09782808855424154		4.1359683677546855
id-1376_AU1-100_AU13-33_AU14-33_AU27i-66	1	1	2	5	17	test	id-1376_AU1-100_AU13-33_AU14-33_AU27i-66	valence	-0.30707150018414703		1.53533543305457
id-1376_AU1-100_AU13-33_AU14-33_AU27i-66	1	1	2	5	17	test	id-1376_AU1-100_AU13-33_AU14-33_AU27i-66	arousal	0.1250025575970864		1.53533543305457
id-1355_AU11-100_AU15-100_AU2-66_AU25-33	1	1	2	5	18	train	id-1355_AU11-100_AU15-100_AU2-66_AU25-33	valence	-0.19565617710848307		1.7020718287931231
id-1355_AU11-100_AU15-100_AU2-66_AU25-33	1	1	2	5	18	train	id-1355_AU11-100_AU15-100_AU2-66_AU25-33	arousal	-0.13587234521422434		1.7020718287931231
id-1269_AU11-100_AU13-33_AU25-100	1	1	2	5	19	test_extra	id-1269_AU11-100_AU13-33_AU25-100	valence	0.20380851782133647		1.4437893131616877
id-1269_AU11-100_AU13-33_AU25-100	1	1	2	5	19	test_extra	id-1269_AU11-100_AU13-33_AU25-100	arousal	-0.07608851331996565		1.4437893131616877
id-1318_AU1-100_AU13-66_AU2-100	1	1	2	5	20	test_extra	id-1318_AU1-100_AU13-66_AU2-100	valence	-0.2717446904284487		1.1689348235413493
id-1318_AU1-100_AU13-66_AU2-100	1	1	2	5	20	test_extra	id-1318_AU1-100_AU13-66_AU2-100	arousal	-0.08967574784138807		1.1689348235413493
id-1341_AU24-66_AU4-66_AU9-66	1	1	2	5	21	train	id-1341_AU24-66_AU4-66_AU9-66	valence	-0.4646834206326473		2.743867916837189
id-1341_AU24-66_AU4-66_AU9-66	1	1	2	5	21	train	id-1341_AU24-66_AU4-66_AU9-66	arousal	-0.11141532307566396		2.743867916837189
id-1266_AU11-66_AU17-100_AU43-66_AU6-66	1	1	2	5	22	test_extra	id-1266_AU11-66_AU17-100_AU43-66_AU6-66	valence	-0.06521872570282768		0.8936764486570609
id-1266_AU11-66_AU17-100_AU43-66_AU6-66	1	1	2	5	22	test_extra	id-1266_AU11-66_AU17-100_AU43-66_AU6-66	arousal	-0.3913123542169661		0.8936764486570609
id-1360_AU11-100_AU16Open-66_AU22-100_AU25-66_AU26-33	1	1	2	5	23	train	id-1360_AU11-100_AU16Open-66_AU22-100_AU25-66_AU26-33	valence	-0.08695830093710358		1.1101906471267284
id-1360_AU11-100_AU16Open-66_AU22-100_AU25-66_AU26-33	1	1	2	5	23	train	id-1360_AU11-100_AU16Open-66_AU22-100_AU25-66_AU26-33	arousal	-0.3559855444612677		1.1101906471267284
id-1294_AU12-100_AU24-66_AU27i-33	1	1	2	5	24	test_extra	id-1294_AU12-100_AU24-66_AU27i-33	valence	-0.0027174469042844872		0.760300432681106
id-1294_AU12-100_AU24-66_AU27i-33	1	1	2	5	24	test_extra	id-1294_AU12-100_AU24-66_AU27i-33	arousal	0.4429438453983714		0.760300432681106
id-1363_AU2-100_AU25-100_AU26-100_AU27i-66	1	1	2	5	25	test_extra	id-1363_AU2-100_AU25-100_AU26-100_AU27i-66	valence	-0.15489447354421576		1.4352310507456425
id-1363_AU2-100_AU25-100_AU26-100_AU27i-66	1	1	2	5	25	test_extra	id-1363_AU2-100_AU25-100_AU26-100_AU27i-66	arousal	0.3777251196955437		1.4352310507456425
id-1378_AU1-66_AU20-66_AU7-33	1	1	2	5	26	test	id-1378_AU1-66_AU20-66_AU7-33	valence	-0.07608851331996565		1.1102742616421892
id-1378_AU1-66_AU20-66_AU7-33	1	1	2	5	26	test	id-1378_AU1-66_AU20-66_AU7-33	arousal	-0.4103344825469576		1.1102742616421892
id-1367_AU11-100_AU16Open-66_AU25-100	1	1	2	5	27	test_extra	id-1367_AU11-100_AU16Open-66_AU25-100	valence	-0.05978383189425871		0.9519947042135756
id-1367_AU11-100_AU16Open-66_AU25-100	1	1	2	5	27	test_extra	id-1367_AU11-100_AU16Open-66_AU25-100	arousal	-0.36685533207840576		0.9519947042135756
id-1362_AU13-100_AU20-33_AU43-33	1	1	2	5	28	test_extra	id-1362_AU13-100_AU20-33_AU43-33	valence	-0.0407617035642673		1.0103045077594288
id-1362_AU13-100_AU20-33_AU43-33	1	1	2	5	28	test_extra	id-1362_AU13-100_AU20-33_AU43-33	arousal	-0.3369634161312764		1.0103045077594288
id-1378_AU11-66_AU27i-33_AU4-100	1	1	2	5	29	test_extra	id-1378_AU11-66_AU27i-33_AU4-100	valence	-0.04891404427712077		1.602059211149026
id-1378_AU11-66_AU27i-33_AU4-100	1	1	2	5	29	test_extra	id-1378_AU11-66_AU27i-33_AU4-100	arousal	-0.30163660637557804		1.602059211149026
id-1366_AU10Open-66_AU20-66	1	1	2	5	30	train	id-1366_AU10Open-66_AU20-66	valence	-0.05434893808568974		0.9769371852744372
id-1366_AU10Open-66_AU20-66	1	1	2	5	30	train	id-1366_AU10Open-66_AU20-66	arousal	-0.3179412878012849		0.9769371852744372
id-1342_AU1-100_AU14-100_AU15-66_AU5-100_AU7-100	1	1	2	5	31	test	id-1342_AU1-100_AU14-100_AU15-66_AU5-100_AU7-100	valence	0.418486823259811		1.0186792408421752
id-1342_AU1-100_AU14-100_AU15-66_AU5-100_AU7-100	1	1	2	5	31	test	id-1342_AU1-100_AU14-100_AU15-66_AU5-100_AU7-100	arousal	0.07880596022425011		1.0186792408421752
id-1291_AU2-66_AU43-100_AU9-100	1	1	2	5	32	test_extra	id-1291_AU2-66_AU43-100_AU9-100	valence	0.010869787617137949		2.1522095059735875
id-1291_AU2-66_AU43-100_AU9-100	1	1	2	5	32	test_extra	id-1291_AU2-66_AU43-100_AU9-100	arousal	-0.7527327924868029		2.1522095059735875
id-1363_AU2-66_AU24-100_AU26-33	1	1	2	5	33	test_extra	id-1363_AU2-66_AU24-100_AU26-33	valence	-0.06521872570282768		1.70234078377689
id-1363_AU2-66_AU24-100_AU26-33	1	1	2	5	33	test_extra	id-1363_AU2-66_AU24-100_AU26-33	arousal	-0.6956664074968286		1.70234078377689
id-1296_AU13-66_AU14-100_AU17-66	1	1	2	5	34	test_extra	id-1296_AU13-66_AU14-100_AU17-66	valence	0.013587234521422437		2.2522061251693235
id-1296_AU13-66_AU14-100_AU17-66	1	1	2	5	34	test_extra	id-1296_AU13-66_AU14-100_AU17-66	arousal	-0.21196085853419		2.2522061251693235
id-1280_AU13-100_AU17-100_AU4-100	1	1	2	5	35	test_extra	id-1280_AU13-100_AU17-100_AU4-100	valence	0.07608851331996565		2.3354864825196278
id-1280_AU13-100_AU17-100_AU4-100	1	1	2	5	35	test_extra	id-1280_AU13-100_AU17-100_AU4-100	arousal	0.4809881020583541		2.3354864825196278
id-1361_AU12-33_AU15-33_AU16Open-100_AU6-66	1	1	2	5	36	test	id-1361_AU12-33_AU15-33_AU16Open-100_AU6-66	valence	0.01630468142570692		2.602319714129408
id-1361_AU12-33_AU15-33_AU16Open-100_AU6-66	1	1	2	5	36	test	id-1361_AU12-33_AU15-33_AU16Open-100_AU6-66	arousal	0.4293566108769489		2.602319714129408
id-1370_AU26-100_AU4-33_AU6-33	1	1	2	6	1	test_extra	id-1370_AU26-100_AU4-33_AU6-33	emotion	Verrassing	0.2201945610636984	1.4698867008264642
id-1366_AU16Open-100_AU43-100	1	1	2	6	2	test_extra	id-1366_AU16Open-100_AU43-100	emotion	Geen van allen	0.0	2.0782224339236564
id-1370_AU2-33_AU27i-66	1	1	2	6	3	train	id-1370_AU2-33_AU27i-66	emotion	Verrassing	0.27628759826752874	1.34486670276965
id-1269_AU10Open-66_AU20-66_AU26-66_AU43-66	1	1	2	6	4	test	id-1269_AU10Open-66_AU20-66_AU26-66_AU43-66	emotion	Walging	0.2170641422949816	1.386376931812265
id-1378_AU10Open-100_AU24-66_AU43-100	1	1	2	6	5	test_extra	id-1378_AU10Open-100_AU24-66_AU43-100	emotion	Walging	0.31411007461775997	1.0196361289563356
id-1293_AU22-100_AU24-33	1	1	2	6	6	test_extra	id-1293_AU22-100_AU24-33	emotion	Verdrietig	0.2560380492529533	2.3449403559861817
id-1274_AU11-66_AU12-66_AU24-66_AU27i-100_AU7-100	1	1	2	6	7	test_extra	id-1274_AU11-66_AU12-66_AU24-66_AU27i-100_AU7-100	emotion	Blij	0.2780200844624339	1.1196759137674237
id-1295_AU11-33_AU12-100_AU13-100_AU20-33_AU9-66	1	1	2	6	8	test	id-1295_AU11-33_AU12-100_AU13-100_AU20-33_AU9-66	emotion	Boos	0.3570659539325662	1.1863058141971123
id-1290_AU24-33_AU25-66_AU4-66	1	1	2	6	9	test_extra	id-1290_AU24-33_AU25-66_AU4-66	emotion	Bang	0.18786065105387104	1.7363758149404018
id-1367_AU16Open-100	1	1	2	6	10	test_extra	id-1367_AU16Open-100	emotion	Geen van allen	0.0	2.7364781446158304
id-1296_AU15-66_AU24-66	1	1	2	6	11	train	id-1296_AU15-66_AU24-66	emotion	Verdrietig	0.5139266072383234	1.269674615781696
id-1293_AU2-33_AU25-33_AU7-100	1	1	2	6	12	train	id-1293_AU2-33_AU25-33_AU7-100	emotion	Verrassing	0.138215321187387	0.8279560447263066
id-1309_AU26-33_AU5-66	1	1	2	6	13	train	id-1309_AU26-33_AU5-66	emotion	Verrassing	0.2916223368917023	1.4614325792317686
id-1335_AU43-66_AU5-66	1	1	2	6	14	test	id-1335_AU43-66_AU5-66	emotion	Geen van allen	0.0	1.2029538562564994
id-1309_AU11-66_AU24-66	1	1	2	6	15	test	id-1309_AU11-66_AU24-66	emotion	Walging	0.20142230266652925	1.2113077611793417
id-1296_AU1-66_AU11-33	1	1	2	6	16	test_extra	id-1296_AU1-66_AU11-33	emotion	Geen van allen	0.0	0.9530279622595116
id-1366_AU14-33_AU2-100_AU26-100_AU27i-100	1	1	2	6	17	test	id-1366_AU14-33_AU2-100_AU26-100_AU27i-100	emotion	Verrassing	0.6531505296785441	0.9781412946394994
id-1347_AU11-100_AU16Open-100_AU22-100_AU24-33	1	1	2	6	18	test_extra	id-1347_AU11-100_AU16Open-100_AU22-100_AU24-33	emotion	Geen van allen	0.0	1.5279740354308158
id-1297_AU10Open-100_AU13-100_AU16Open-100_AU22-66_AU25-100	1	1	2	6	19	train	id-1297_AU10Open-100_AU13-100_AU16Open-100_AU22-66_AU25-100	emotion	Boos	0.4293094280923071	1.8116065396789047
id-1380_AU13-66_AU20-66_AU22-100_AU5-100	1	1	2	6	20	train	id-1380_AU13-66_AU20-66_AU22-100_AU5-100	emotion	Geen van allen	0.0	1.04465165952206
id-1260_AU12-66_AU20-100_AU22-66_AU43-66	1	1	2	6	21	test_extra	id-1260_AU12-66_AU20-100_AU22-66_AU43-66	emotion	Blij	0.1361810428893304	1.6447970944427652
id-1309_AU1-66_AU2-66_AU9-33	1	1	2	6	22	train	id-1309_AU1-66_AU2-66_AU9-33	emotion	Walging	0.2690581944747701	1.2283255786169325
id-1366_AU20-100_AU22-66_AU4-100	1	1	2	6	23	test_extra	id-1366_AU20-100_AU22-66_AU4-100	emotion	Geen van allen	0.0	3.2448764225773634
id-1363_AU14-66	1	1	2	6	24	test_extra	id-1363_AU14-66	emotion	Geen van allen	0.0	4.8950553334907445
id-1344_AU13-100_AU17-100_AU9-66	1	1	2	6	25	test_extra	id-1344_AU13-100_AU17-100_AU9-66	emotion	Boos	0.35544176430184365	1.161345523541968
id-1373_AU1-33_AU15-100_AU4-66_AU7-66_AU9-66	1	1	2	6	26	test_extra	id-1373_AU1-33_AU15-100_AU4-66_AU7-66_AU9-66	emotion	Verdrietig	0.4586089495074937	1.0197182341798907
id-1266_AU17-33_AU24-33_AU26-66	1	1	2	6	27	train	id-1266_AU17-33_AU24-33_AU26-66	emotion	Geen van allen	0.0	1.861403057573625
id-1296_AU17-66_AU26-66_AU4-66	1	1	2	6	28	test_extra	id-1296_AU17-66_AU26-66_AU4-66	emotion	Bang	0.28753574909179563	1.6448788978086668
id-1380_AU1-66_AU14-100_AU17-66_AU9-33	1	1	2	6	29	train	id-1380_AU1-66_AU14-100_AU17-66_AU9-33	emotion	Boos	0.2133132752564869	1.5696738309488865
id-1318_AU22-100_AU26-100_AU27i-33_AU4-33_AU6-33	1	1	2	6	30	test	id-1318_AU22-100_AU26-100_AU27i-33_AU4-33_AU6-33	emotion	Verrassing	0.5192811746458167	1.403254989250854
id-1361_AU10Open-33_AU11-100_AU13-66_AU2-100	1	1	2	6	31	test_extra	id-1361_AU10Open-33_AU11-100_AU13-66_AU2-100	emotion	Walging	0.3856124017495837	2.086661462646589
id-1295_AU13-33_AU5-66	1	1	2	6	32	train	id-1295_AU13-33_AU5-66	emotion	Geen van allen	0.0	1.0697994036490854
id-1310_AU2-66	1	1	2	6	33	train	id-1310_AU2-66	emotion	Geen van allen	0.0	2.3032795000726765
id-1291_AU14-100_AU15-66	1	1	2	6	34	train	id-1291_AU14-100_AU15-66	emotion	Geen van allen	0.0	1.3117167176533258
id-1339_AU10Open-100_AU12-33_AU20-100_AU27i-33	1	1	2	6	35	test	id-1339_AU10Open-100_AU12-33_AU20-100_AU27i-33	emotion	Blij	0.9147217637890944	0.877838893848093
id-1270_AU22-66_AU26-100	1	1	2	6	36	test_extra	id-1270_AU22-66_AU26-100	emotion	Verrassing	0.16012601803586934	1.4279608140714115
id-1378_AU11-66_AU27i-33_AU4-100	1	1	2	7	1	test_extra	id-1378_AU11-66_AU27i-33_AU4-100	emotion	Verrassing	0.4401892483591491	1.4781391816395626
id-1339_AU14-100_AU15-66_AU26-33	1	1	2	7	2	test_extra	id-1339_AU14-100_AU15-66_AU26-33	emotion	Verrassing	0.34639233848125506	1.2198373471328523
id-1264_AU22-100_AU24-66_AU25-100_AU9-100	1	1	2	7	3	train	id-1264_AU22-100_AU24-66_AU25-100_AU9-100	emotion	Walging	0.2875910687943038	1.3863204844674328
id-1370_AU25-66	1	1	2	7	4	test_extra	id-1370_AU25-66	emotion	Geen van allen	0.0	0.9363853536342504
id-1377_AU13-66_AU14-33_AU22-33_AU7-100_AU9-66	1	1	2	7	5	test_extra	id-1377_AU13-66_AU14-33_AU22-33_AU7-100_AU9-66	emotion	Blij	0.15195003960902276	1.8448624767661383
id-1378_AU1-66_AU20-66_AU7-33	1	1	2	7	6	test	id-1378_AU1-66_AU20-66_AU7-33	emotion	Geen van allen	0.0	3.1554251933848723
id-1355_AU11-100_AU15-100_AU2-66_AU25-33	1	1	2	7	7	train	id-1355_AU11-100_AU15-100_AU2-66_AU25-33	emotion	Bang	0.28084774097191656	1.1112839748129772
id-1306_AU12-100_AU14-33_AU17-33_AU27i-33	1	1	2	7	8	test_extra	id-1306_AU12-100_AU14-33_AU17-33_AU27i-33	emotion	Verrassing	0.2779635739653092	0.8696066374832299
id-1280_AU13-100_AU17-100_AU4-100	1	1	2	7	9	test_extra	id-1280_AU13-100_AU17-100_AU4-100	emotion	Geen van allen	0.0	3.1700426403840534
id-1266_AU15-33	1	1	2	7	10	test_extra	id-1266_AU15-33	emotion	Geen van allen	0.0	0.6194564634024573
id-1266_AU11-66_AU17-100_AU43-66_AU6-66	1	1	2	7	11	test_extra	id-1266_AU11-66_AU17-100_AU43-66_AU6-66	emotion	Verdrietig	0.15890885145356534	2.2198608920116385
id-1342_AU1-100_AU14-100_AU15-66_AU5-100_AU7-100	1	1	2	7	12	test	id-1342_AU1-100_AU14-100_AU15-66_AU5-100_AU7-100	emotion	Blij	0.2820477391569695	1.0864338621286151
id-1341_AU24-66_AU4-66_AU9-66	1	1	2	7	13	train	id-1341_AU24-66_AU4-66_AU9-66	emotion	Boos	0.24627127518780176	1.6198881195559809
id-1273_AU22-33_AU24-66_AU9-66	1	1	2	7	14	train	id-1273_AU22-33_AU24-66_AU9-66	emotion	Bang	0.08155408940555292	1.519593868910306
id-1347_AU4-33_AU43-66_AU9-66	1	1	2	7	15	test_extra	id-1347_AU4-33_AU43-66_AU9-66	emotion	Geen van allen	0.0	1.5280229363379476
id-1293_AU10Open-66_AU26-100_AU27i-66_AU6-100	1	1	2	7	16	test_extra	id-1293_AU10Open-66_AU26-100_AU27i-66_AU6-100	emotion	Verrassing	0.7101184180580207	1.4782544911868172
id-1291_AU2-66_AU43-100_AU9-100	1	1	2	7	17	test_extra	id-1291_AU2-66_AU43-100_AU9-100	emotion	Boos	0.3831225708753372	2.52827106316181
id-1296_AU13-66_AU14-100_AU17-66	1	1	2	7	18	test_extra	id-1296_AU13-66_AU14-100_AU17-66	emotion	Blij	0.5092214341539208	1.744901174886763
id-1366_AU15-66_AU24-33_AU4-100_AU9-100	1	1	2	7	19	test_extra	id-1366_AU15-66_AU24-33_AU4-100_AU9-100	emotion	Walging	0.4864725745788857	1.403021653444739
id-1318_AU1-100_AU13-66_AU2-100	1	1	2	7	20	test_extra	id-1318_AU1-100_AU13-66_AU2-100	emotion	Bang	0.06994461850545004	1.5028757959225914
id-1356_AU6-33	1	1	2	7	21	test	id-1356_AU6-33	emotion	Geen van allen	0.0	1.0865850927075371
id-1362_AU13-100_AU20-33_AU43-33	1	1	2	7	22	test_extra	id-1362_AU13-100_AU20-33_AU43-33	emotion	Verdrietig	0.040015174601589015	2.29494702703596
id-1363_AU2-100_AU25-100_AU26-100_AU27i-66	1	1	2	7	23	test_extra	id-1363_AU2-100_AU25-100_AU26-100_AU27i-66	emotion	Verrassing	0.44007329865205497	1.3615008593878883
id-1376_AU1-100_AU13-33_AU14-33_AU27i-66	1	1	2	7	24	test	id-1376_AU1-100_AU13-33_AU14-33_AU27i-66	emotion	Verrassing	0.504258597953151	1.0362585131369997
id-1291_AU4-100_AU43-33_AU7-66	1	1	2	7	25	test	id-1291_AU4-100_AU43-33_AU7-66	emotion	Boos	0.13116111992309742	1.2698361095135624
id-1363_AU2-66_AU24-100_AU26-33	1	1	2	7	26	test_extra	id-1363_AU2-66_AU24-100_AU26-33	emotion	Bang	0.13129608210815502	2.353330785655998
id-1269_AU11-100_AU13-33_AU25-100	1	1	2	7	27	test_extra	id-1269_AU11-100_AU13-33_AU25-100	emotion	Walging	0.1837686900391869	1.4615258531848667
id-1361_AU12-33_AU15-33_AU16Open-100_AU6-66	1	1	2	7	28	test	id-1361_AU12-33_AU15-33_AU16Open-100_AU6-66	emotion	Blij	0.11613537201030155	0.8364379371996621
id-1294_AU12-100_AU24-66_AU27i-33	1	1	2	7	29	test_extra	id-1294_AU12-100_AU24-66_AU27i-33	emotion	Verrassing	0.25244415518510793	0.9468112080867286
id-1366_AU10Open-66_AU20-66	1	1	2	7	30	train	id-1366_AU10Open-66_AU20-66	emotion	Walging	0.17796999484226758	1.6282836808022694
id-1290_AU22-33	1	1	2	7	31	test_extra	id-1290_AU22-33	emotion	Geen van allen	0.0	0.7446255790382565
id-1362_AU5-33_AU6-66_AU7-33	1	1	2	7	32	test	id-1362_AU5-33_AU6-66_AU7-33	emotion	Verdrietig	0.10703246368089614	1.0553772584207763
id-1367_AU11-100_AU16Open-66_AU25-100	1	1	2	7	33	test_extra	id-1367_AU11-100_AU16Open-66_AU25-100	emotion	Geen van allen	0.0	1.1032273994787831
id-1306_AU16Open-33_AU17-100_AU22-66_AU4-100	1	1	2	7	34	test_extra	id-1306_AU16Open-33_AU17-100_AU22-66_AU4-100	emotion	Geen van allen	0.0	0.9613836783282752
id-1360_AU11-100_AU16Open-66_AU22-100_AU25-66_AU26-33	1	1	2	7	35	train	id-1360_AU11-100_AU16Open-66_AU22-100_AU25-66_AU26-33	emotion	Verrassing	0.3853120299256043	1.6281276204972528
id-1376_AU16Open-100_AU43-66_AU5-33	1	1	2	7	36	train	id-1376_AU16Open-100_AU43-66_AU5-33	emotion	Verdrietig	0.05321063317190256	2.3865034100854245
id-1306_AU24-66_AU43-100_AU7-100	1	1	2	8	1	test	id-1306_AU24-66_AU43-100_AU7-100	valence	0.2554400090027418		3.79405292527008
id-1306_AU24-66_AU43-100_AU7-100	1	1	2	8	1	test	id-1306_AU24-66_AU43-100_AU7-100	arousal	0.09239319474567256		3.79405292527008
id-1354_AU1-66_AU10Open-100	1	1	2	8	2	test	id-1354_AU1-66_AU10Open-100	valence	-0.402182141834104		1.3019718536015716
id-1354_AU1-66_AU10Open-100	1	1	2	8	2	test	id-1354_AU1-66_AU10Open-100	arousal	0.11413276997994845		1.3019718536015716
id-1344_AU13-66_AU14-66_AU24-33_AU9-33	1	1	2	8	3	test	id-1344_AU13-66_AU14-66_AU24-33_AU9-33	valence	-0.4347915046855179		1.0686191410241008
id-1344_AU13-66_AU14-66_AU24-33_AU9-33	1	1	2	8	3	test	id-1344_AU13-66_AU14-66_AU24-33_AU9-33	arousal	0.4266391639726645		1.0686191410241008
id-1345_AU26-66_AU27i-100_AU9-100	1	1	2	8	4	test_extra	id-1345_AU26-66_AU27i-100_AU9-100	valence	-0.6549047039325613		2.5931308715044
id-1345_AU26-66_AU27i-100_AU9-100	1	1	2	8	4	test_extra	id-1345_AU26-66_AU27i-100_AU9-100	arousal	0.7228408765396734		2.5931308715044
id-1360_AU11-33_AU25-100	1	1	2	8	5	test_extra	id-1360_AU11-33_AU25-100	valence	0.0054348938085689745		2.743874557705567
id-1360_AU11-33_AU25-100	1	1	2	8	5	test_extra	id-1360_AU11-33_AU25-100	arousal	-0.4592485268240783		2.743874557705567
id-1323_AU22-66_AU7-100	1	1	2	8	6	test_extra	id-1323_AU22-66_AU7-100	valence	0.0054348938085689745		1.8523156390510849
id-1323_AU22-66_AU7-100	1	1	2	8	6	test_extra	id-1323_AU22-66_AU7-100	arousal	-0.28533192494987114		1.8523156390510849
id-1335_AU11-66_AU14-100	1	1	2	8	7	train	id-1335_AU11-66_AU14-100	valence	0.8152340712853461		2.0853909446377656
id-1335_AU11-66_AU14-100	1	1	2	8	7	train	id-1335_AU11-66_AU14-100	arousal	0.1630468142570692		2.0853909446377656
id-1279_AU22-33_AU26-33_AU4-33	1	1	2	8	8	test	id-1279_AU22-33_AU26-33_AU4-33	valence	0.6114255534640095		1.6520440880922251
id-1279_AU22-33_AU26-33_AU4-33	1	1	2	8	8	test	id-1279_AU22-33_AU26-33_AU4-33	arousal	-0.19565617710848307		1.6520440880922251
id-1358_AU10Open-33_AU22-100_AU6-100	1	1	2	8	9	train	id-1358_AU10Open-33_AU22-100_AU6-100	valence	-0.4320740577812335		2.527085970810731
id-1358_AU10Open-33_AU22-100_AU6-100	1	1	2	8	9	train	id-1358_AU10Open-33_AU22-100_AU6-100	arousal	0.10869787617137948		2.527085970810731
id-1296_AU12-100_AU14-66_AU17-100	1	1	2	8	10	train	id-1296_AU12-100_AU14-66_AU17-100	valence	-0.29348426566272456		1.6606020486433408
id-1296_AU12-100_AU14-66_AU17-100	1	1	2	8	10	train	id-1296_AU12-100_AU14-66_AU17-100	arousal	0.17935149568277614		1.6606020486433408
id-1377_AU10Open-33_AU13-33_AU24-100_AU6-66	1	1	2	8	11	train	id-1377_AU10Open-33_AU13-33_AU24-100_AU6-66	valence	-0.26902724352416424		1.9605149325834643
id-1377_AU10Open-33_AU13-33_AU24-100_AU6-66	1	1	2	8	11	train	id-1377_AU10Open-33_AU13-33_AU24-100_AU6-66	arousal	0.1657642611613537		1.9605149325834643
id-1274_AU10Open-66_AU2-33_AU43-100_AU9-66	1	1	2	8	12	test	id-1274_AU10Open-66_AU2-33_AU43-100_AU9-66	valence	-0.21739575234275896		2.360449489890016
id-1274_AU10Open-66_AU2-33_AU43-100_AU9-66	1	1	2	8	12	test	id-1274_AU10Open-66_AU2-33_AU43-100_AU9-66	arousal	0.6087081065597252		2.360449489890016
id-1260_AU13-33_AU4-66	1	1	2	8	13	test_extra	id-1260_AU13-33_AU4-66	valence	-0.04347915046855179		2.568823498513666
id-1260_AU13-33_AU4-66	1	1	2	8	13	test_extra	id-1260_AU13-33_AU4-66	arousal	-0.3179412878012849		2.568823498513666
id-1273_AU11-100_AU15-33_AU20-33	1	1	2	8	14	test_extra	id-1273_AU11-100_AU15-33_AU20-33	valence	-0.00815234071285346		4.9942318059947866
id-1273_AU11-100_AU15-33_AU20-33	1	1	2	8	14	test_extra	id-1273_AU11-100_AU15-33_AU20-33	arousal	0.13043745140565535		4.9942318059947866
id-1273_AU15-66_AU20-66_AU5-66	1	1	2	8	15	train	id-1273_AU15-66_AU20-66_AU5-66	valence	0.11413276997994845		2.493874708630756
id-1273_AU15-66_AU20-66_AU5-66	1	1	2	8	15	train	id-1273_AU15-66_AU20-66_AU5-66	arousal	-0.2472876682898883		2.493874708630756
id-1302_AU2-33_AU43-66	1	1	2	8	16	test_extra	id-1302_AU2-33_AU43-66	valence	-0.01902212832999141		2.79386607550623
id-1302_AU2-33_AU43-66	1	1	2	8	16	test_extra	id-1302_AU2-33_AU43-66	arousal	-0.19293873020419855		2.79386607550623
id-1289_AU1-66_AU12-100_AU27i-100	1	1	2	8	17	train	id-1289_AU1-66_AU12-100_AU27i-100	valence	0.3858774604083972		2.9941032147216897
id-1289_AU1-66_AU12-100_AU27i-100	1	1	2	8	17	train	id-1289_AU1-66_AU12-100_AU27i-100	arousal	0.1521770266399313		2.9941032147216897
id-1355_AU10Open-33	1	1	2	8	18	test_extra	id-1355_AU10Open-33	valence	0.105980429267095		1.4853013533465855
id-1355_AU10Open-33	1	1	2	8	18	test_extra	id-1355_AU10Open-33	arousal	-0.8777353500838894		1.4853013533465855
id-1270_AU2-33_AU24-66_AU4-66	1	1	2	8	19	test_extra	id-1270_AU2-33_AU24-66_AU4-66	valence	0.105980429267095		1.1520516345299256
id-1270_AU2-33_AU24-66_AU4-66	1	1	2	8	19	test_extra	id-1270_AU2-33_AU24-66_AU4-66	arousal	-0.7065361951139666		1.1520516345299256
id-1290_AU2-100_AU9-66	1	1	2	8	20	train	id-1290_AU2-100_AU9-66	valence	-0.19022128329991408		0.8937165956995159
id-1290_AU2-100_AU9-66	1	1	2	8	20	train	id-1290_AU2-100_AU9-66	arousal	0.1440246859270778		0.8937165956995159
id-1266_AU25-100_AU4-100	1	1	2	8	21	train	id-1266_AU25-100_AU4-100	valence	-0.07880596022425011		1.8022239045749304
id-1266_AU25-100_AU4-100	1	1	2	8	21	train	id-1266_AU25-100_AU4-100	arousal	0.33968086303556083		1.8022239045749304
id-1291_AU14-33_AU7-33	1	1	2	8	22	test_extra	id-1291_AU14-33_AU7-33	valence	0.06793617260711217		1.63536314357043
id-1291_AU14-33_AU7-33	1	1	2	8	22	test_extra	id-1291_AU14-33_AU7-33	arousal	-0.5652289560911733		1.63536314357043
id-1280_AU26-66_AU9-100	1	1	2	8	23	test_extra	id-1280_AU26-66_AU9-100	valence	0.14130723902279332		1.3687608329091745
id-1280_AU26-66_AU9-100	1	1	2	8	23	test_extra	id-1280_AU26-66_AU9-100	arousal	0.4755532082497852		1.3687608329091745
id-1296_AU11-66_AU26-66_AU4-66_AU6-100	1	1	2	8	24	test_extra	id-1296_AU11-66_AU26-66_AU4-66_AU6-100	valence	0.1657642611613537		1.2269515235057042
id-1296_AU11-66_AU26-66_AU4-66_AU6-100	1	1	2	8	24	test_extra	id-1296_AU11-66_AU26-66_AU4-66_AU6-100	arousal	0.5679464029954577		1.2269515235057042
id-1279_AU1-33_AU14-33_AU26-33	1	1	2	8	25	test_extra	id-1279_AU1-33_AU14-33_AU26-33	valence	0.9184970536481566		0.9937421932118014
id-1279_AU1-33_AU14-33_AU26-33	1	1	2	8	25	test_extra	id-1279_AU1-33_AU14-33_AU26-33	arousal	0.11956766378851742		0.9937421932118014
id-1311_AU10Open-66_AU15-100_AU2-66	1	1	2	8	26	test_extra	id-1311_AU10Open-66_AU15-100_AU2-66	valence	-0.3288110754184229		2.7686866363474114
id-1311_AU10Open-66_AU15-100_AU2-66	1	1	2	8	26	test_extra	id-1311_AU10Open-66_AU15-100_AU2-66	arousal	0.07337106641568114		2.7686866363474114
id-1376_AU10Open-100_AU11-100_AU16Open-66_AU22-33	1	1	2	8	27	test_extra	id-1376_AU10Open-100_AU11-100_AU16Open-66_AU22-33	valence	0.50272767729263		1.4519838373453238
id-1376_AU10Open-100_AU11-100_AU16Open-66_AU22-33	1	1	2	8	27	test_extra	id-1376_AU10Open-100_AU11-100_AU16Open-66_AU22-33	arousal	0.08695830093710358		1.4519838373453238
id-1289_AU10Open-66_AU22-66_AU43-100_AU5-33	1	1	2	8	28	test_extra	id-1289_AU10Open-66_AU22-66_AU43-100_AU5-33	valence	0.00815234071285346		1.2109841699893875
id-1289_AU10Open-66_AU22-66_AU43-100_AU5-33	1	1	2	8	28	test_extra	id-1289_AU10Open-66_AU22-66_AU43-100_AU5-33	arousal	-0.725558323443958		1.2109841699893875
id-1363_AU1-33_AU15-100_AU2-66_AU22-66_AU5-100	1	1	2	8	29	test	id-1363_AU1-33_AU15-100_AU2-66_AU22-66_AU5-100	valence	0.0407617035642673		1.0936201824297314
id-1363_AU1-33_AU15-100_AU2-66_AU22-66_AU5-100	1	1	2	8	29	test	id-1363_AU1-33_AU15-100_AU2-66_AU22-66_AU5-100	arousal	-0.6902315136882597		1.0936201824297314
id-1273_AU12-100_AU16Open-33_AU20-100_AU22-66_AU5-66	1	1	2	8	30	test	id-1273_AU12-100_AU16Open-33_AU20-100_AU22-66_AU5-66	valence	0.11413276997994845		1.0352798912826984
id-1273_AU12-100_AU16Open-33_AU20-100_AU22-66_AU5-66	1	1	2	8	30	test	id-1273_AU12-100_AU16Open-33_AU20-100_AU22-66_AU5-66	arousal	-0.6467523632197079		1.0352798912826984
id-1306_AU11-33_AU6-66	1	1	2	8	31	train	id-1306_AU11-33_AU6-66	valence	0.057066384989974225		2.1104429999577405
id-1306_AU11-33_AU6-66	1	1	2	8	31	train	id-1306_AU11-33_AU6-66	arousal	-0.5326195932397594		2.1104429999577405
id-1302_AU1-33_AU22-100	1	1	2	8	32	test_extra	id-1302_AU1-33_AU22-100	valence	0.03532680975569833		1.3021312343371392
id-1302_AU1-33_AU22-100	1	1	2	8	32	test_extra	id-1302_AU1-33_AU22-100	arousal	-0.2771795842370177		1.3021312343371392
id-1377_AU10Open-100_AU22-66_AU4-66_AU5-100_AU7-100	1	1	2	8	33	test_extra	id-1377_AU10Open-100_AU22-66_AU4-66_AU5-100_AU7-100	valence	0.0054348938085689745		2.7855055297295617
id-1377_AU10Open-100_AU22-66_AU4-66_AU5-100_AU7-100	1	1	2	8	33	test_extra	id-1377_AU10Open-100_AU22-66_AU4-66_AU5-100_AU7-100	arousal	0.2201131992470434		2.7855055297295617
id-1290_AU11-66_AU16Open-100_AU43-33_AU6-33	1	1	2	8	34	test_extra	id-1290_AU11-66_AU16Open-100_AU43-33_AU6-33	valence	-0.15489447354421576		1.9103912012178623
id-1290_AU11-66_AU16Open-100_AU43-33_AU6-33	1	1	2	8	34	test_extra	id-1290_AU11-66_AU16Open-100_AU43-33_AU6-33	arousal	0.3505506506526989		1.9103912012178623
id-1269_AU16Open-66_AU5-100	1	1	2	8	35	train	id-1269_AU16Open-66_AU5-100	valence	-0.03804425665998282		4.669099033995735
id-1269_AU16Open-66_AU5-100	1	1	2	8	35	train	id-1269_AU16Open-66_AU5-100	arousal	0.3260936285141384		4.669099033995735
id-1345_AU12-66	1	1	2	8	36	test_extra	id-1345_AU12-66	valence	-0.11141532307566396		1.8354807472278485
id-1345_AU12-66	1	1	2	8	36	test_extra	id-1345_AU12-66	arousal	0.0		1.8354807472278485
id-1311_AU25-33	1	1	3	9	1	test_extra	id-1311_AU25-33	emotion	Bang	0.1630502243865177	3.644956173317041
id-1285_AU12-66_AU20-100	1	1	3	9	2	test_extra	id-1285_AU12-66_AU20-100	emotion	Blij	0.13141412389333534	1.4282192040518569
id-1362_AU17-66_AU27i-100_AU9-100	1	1	3	9	3	test_extra	id-1362_AU17-66_AU27i-100_AU9-100	emotion	Boos	0.2604849561883708	2.3448570433320133
id-1380_AU22-66_AU7-33	1	1	3	9	4	train	id-1380_AU22-66_AU7-33	emotion	Geen van allen	0.0	3.095024423288123
id-1289_AU17-33_AU26-66	1	1	3	9	5	test	id-1289_AU17-33_AU26-66	emotion	Geen van allen	0.0	1.1530432362487772
id-1347_AU13-100_AU14-66_AU17-100_AU27i-66_AU7-100	1	1	3	9	6	test	id-1347_AU13-100_AU14-66_AU17-100_AU27i-66_AU7-100	emotion	Geen van allen	0.0	5.76202796286816
id-1310_AU13-66_AU14-100_AU4-66_AU9-33	1	1	3	9	7	train	id-1310_AU13-66_AU14-100_AU4-66_AU9-33	emotion	Walging	0.3460493878374163	1.7613370111612312
id-1293_AU1-33_AU22-33_AU27i-100	1	1	3	9	8	train	id-1293_AU1-33_AU22-33_AU27i-100	emotion	Verrassing	0.39110857201900745	1.077920878335135
id-1307_AU17-66_AU25-33_AU4-100	1	1	3	9	9	train	id-1307_AU17-66_AU25-33_AU4-100	emotion	Boos	0.2598609385448242	3.5698803014456644
id-1266_AU1-33_AU10Open-100_AU11-66_AU12-100_AU14-33	1	1	3	9	10	test_extra	id-1266_AU1-33_AU10Open-100_AU11-66_AU12-100_AU14-33	emotion	Blij	0.4623272358048643	1.5364827932207843
id-1344_AU20-100_AU22-66_AU7-66	1	1	3	9	11	train	id-1344_AU20-100_AU22-66_AU7-66	emotion	Geen van allen	0.0	2.1530990798783023
id-1345_AU10Open-66_AU16Open-66_AU22-33_AU43-33	1	1	3	9	12	train	id-1345_AU10Open-66_AU16Open-66_AU22-33_AU43-33	emotion	Bang	0.11207224745003934	5.478521031312994
id-1335_AU11-66_AU17-66_AU25-66_AU6-33	1	1	3	9	13	train	id-1335_AU11-66_AU17-66_AU25-66_AU6-33	emotion	Geen van allen	0.0	2.278347282168397
id-1361_AU15-33_AU16Open-100_AU27i-100_AU6-33	1	1	3	9	14	train	id-1361_AU15-33_AU16Open-100_AU27i-100_AU6-33	emotion	Verrassing	0.4700144478935132	1.194692923436378
id-1311_AU24-66	1	1	3	9	15	test_extra	id-1311_AU24-66	emotion	Verdrietig	0.14962289466278153	3.2533939342356466
id-1344_AU1-66_AU12-66_AU24-33_AU27i-33	1	1	3	9	16	train	id-1344_AU1-66_AU12-66_AU24-33_AU27i-33	emotion	Verrassing	0.3815847470795624	1.1697081823294866
id-1362_AU6-100	1	1	3	9	17	train	id-1362_AU6-100	emotion	Verdrietig	0.20203618259344927	1.8781476940202992
id-1318_AU12-100_AU14-100_AU26-33_AU6-66	1	1	3	9	18	test_extra	id-1318_AU12-100_AU14-100_AU26-33_AU6-66	emotion	Walging	0.2340666717899104	0.9114410614274676
id-1341_AU1-33_AU15-33_AU2-66_AU4-33	1	1	3	9	19	test	id-1341_AU1-33_AU15-33_AU2-66_AU4-33	emotion	Verdrietig	0.34379982529066283	1.4614368052389182
id-1378_AU15-100_AU16Open-66_AU26-66_AU7-100	1	1	3	9	20	test_extra	id-1378_AU15-100_AU16Open-66_AU26-66_AU7-100	emotion	Verrassing	0.2866053686054021	1.9615180048931504
id-1291_AU1-100_AU16Open-100_AU6-33	1	1	3	9	21	train	id-1291_AU1-100_AU16Open-100_AU6-33	emotion	Bang	0.19069855264184024	1.120045689141989
id-1380_AU5-66	1	1	3	9	22	train	id-1380_AU5-66	emotion	Verrassing	0.2047522623942589	1.0280102583237751
id-1291_AU20-33_AU24-100_AU25-33_AU27i-100	1	1	3	9	23	test	id-1291_AU20-33_AU24-100_AU25-33_AU27i-100	emotion	Geen van allen	0.0	3.453299935823452
id-1345_AU12-33_AU27i-66_AU7-100_AU9-66	1	1	3	9	24	test_extra	id-1345_AU12-33_AU27i-66_AU7-100_AU9-66	emotion	Bang	0.4035126177553741	0.9863545339867414
id-1290_AU2-100_AU20-33_AU24-33_AU25-66_AU6-66	1	1	3	9	25	test_extra	id-1290_AU2-100_AU20-33_AU24-33_AU25-66_AU6-66	emotion	Verdrietig	0.3897734889923274	1.8113665630080504
id-1296_AU1-66_AU17-100_AU27i-33_AU4-66_AU5-100	1	1	3	9	26	test	id-1296_AU1-66_AU17-100_AU27i-33_AU4-66_AU5-100	emotion	Verdrietig	0.3296331005037409	2.2948637143781525
id-1315_AU1-66_AU12-100	1	1	3	9	27	test_extra	id-1315_AU1-66_AU12-100	emotion	Blij	0.34029278091716303	0.986295068069012
id-1309_AU10Open-100_AU2-100_AU27i-33	1	1	3	9	28	test_extra	id-1309_AU10Open-100_AU2-100_AU27i-33	emotion	Geen van allen	0.0	2.4864417707940447
id-1290_AU24-100_AU9-33	1	1	3	9	29	train	id-1290_AU24-100_AU9-33	emotion	Walging	0.3317348761661452	0.8197322403684666
id-1315_AU12-66_AU17-33_AU2-100_AU4-100	1	1	3	9	30	test	id-1315_AU12-66_AU17-33_AU2-100_AU4-100	emotion	Blij	0.2706239814028359	0.7946653940343822
id-1363_AU16Open-66_AU4-33_AU6-66_AU9-100	1	1	3	9	31	test_extra	id-1363_AU16Open-66_AU4-33_AU6-66_AU9-100	emotion	Geen van allen	0.0	4.236680690963111
id-1360_AU1-100_AU13-66_AU27i-100_AU4-33_AU9-100	1	1	3	9	32	test_extra	id-1360_AU1-100_AU13-66_AU27i-100_AU4-33_AU9-100	emotion	Verrassing	0.3024172866374973	1.0364181957229448
id-1315_AU1-66_AU20-66	1	1	3	9	33	test_extra	id-1315_AU1-66_AU20-66	emotion	Bang	0.12710053000330668	1.219752525190415
id-1367_AU16Open-66_AU2-100_AU7-100	1	1	3	9	34	test_extra	id-1367_AU16Open-66_AU2-100_AU7-100	emotion	Geen van allen	0.0	3.0534188072888355
id-1345_AU11-100_AU20-66	1	1	3	9	35	train	id-1345_AU11-100_AU20-66	emotion	Verdrietig	0.1430560587506816	1.7864814348613436
id-1297_AU11-100_AU24-33	1	1	3	9	36	test	id-1297_AU11-100_AU24-33	emotion	Verdrietig	0.16813239893886284	2.1952172498240543
id-1345_AU17-66_AU25-66_AU6-100	1	1	3	10	1	test	id-1345_AU17-66_AU25-66_AU6-100	emotion	Bang	0.1821443987909032	3.053212034938042
id-1310_AU10Open-33_AU16Open-33_AU20-66_AU26-100	1	1	3	10	2	test_extra	id-1310_AU10Open-33_AU16Open-33_AU20-66_AU26-100	emotion	Boos	0.4712761407129468	1.9196410190452289
id-1307_AU16Open-33_AU2-100_AU5-33_AU6-66	1	1	3	10	3	test_extra	id-1307_AU16Open-33_AU2-100_AU5-33_AU6-66	emotion	Verrassing	0.26702349045239426	1.5948913041502235
id-1266_AU1-66_AU12-100_AU24-100	1	1	3	10	4	test_extra	id-1266_AU1-66_AU12-100_AU24-100	emotion	Blij	0.5676657833398532	0.9112436466566578
id-1370_AU1-33_AU26-66_AU7-100	1	1	3	10	5	train	id-1370_AU1-33_AU26-66_AU7-100	emotion	Verrassing	0.34896207086302816	1.1031102787892453
id-1264_AU10Open-33_AU12-66	1	1	3	10	6	test_extra	id-1264_AU10Open-33_AU12-66	emotion	Bang	0.19669526594010325	3.936761769873556
id-1307_AU16Open-66_AU17-66_AU43-33	1	1	3	10	7	test_extra	id-1307_AU16Open-66_AU17-66_AU43-33	emotion	Geen van allen	0.0	1.7031482524580497
id-1323_AU12-33_AU20-100_AU25-33_AU4-33	1	1	3	10	8	test_extra	id-1323_AU12-33_AU20-100_AU25-33_AU4-33	emotion	Bang	0.12982506962479293	1.0616555915185018
id-1370_AU20-33_AU43-100	1	1	3	10	9	train	id-1370_AU20-33_AU43-100	emotion	Geen van allen	0.0	0.9612846690833976
id-1354_AU16Open-33_AU20-33_AU25-100_AU7-66	1	1	3	10	10	test_extra	id-1354_AU16Open-33_AU20-33_AU25-100_AU7-66	emotion	Geen van allen	0.0	1.0112188339735442
id-1366_AU15-100_AU25-66_AU27i-100_AU43-33	1	1	3	10	11	train	id-1366_AU15-100_AU25-66_AU27i-100_AU43-33	emotion	Geen van allen	0.0	1.6035084287650534
id-1367_AU17-66	1	1	3	10	12	test_extra	id-1367_AU17-66	emotion	Bang	0.09572687568740416	1.8364777823881009
id-1344_AU2-33_AU20-100_AU24-100	1	1	3	10	13	test	id-1344_AU2-33_AU20-100_AU24-100	emotion	Walging	0.06606846667320147	2.4363784109154962
id-1279_AU1-33_AU10Open-33_AU24-33	1	1	3	10	14	train	id-1279_AU1-33_AU10Open-33_AU24-33	emotion	Geen van allen	0.0	1.394908932627004
id-1341_AU12-66_AU20-66	1	1	3	10	15	train	id-1341_AU12-66_AU20-66	emotion	Blij	0.1187533101059917	1.1196191645649378
id-1354_AU10Open-66_AU13-66_AU15-33_AU2-66	1	1	3	10	16	test_extra	id-1354_AU10Open-66_AU13-66_AU15-33_AU2-66	emotion	Walging	0.12632968848401005	2.3450064627650136
id-1344_AU10Open-33_AU16Open-100	1	1	3	10	17	train	id-1344_AU10Open-33_AU16Open-100	emotion	Boos	0.13631376896541014	3.0867308898559718
id-1356_AU10Open-66_AU22-100_AU4-100_AU7-33	1	1	3	10	18	train	id-1356_AU10Open-66_AU22-100_AU4-100_AU7-33	emotion	Boos	0.3654337166300583	1.5113510475348448
id-1356_AU14-33_AU15-33_AU2-66_AU5-66	1	1	3	10	19	test_extra	id-1356_AU14-33_AU15-33_AU2-66_AU5-66	emotion	Geen van allen	0.0	4.436969145943294
id-1323_AU26-33	1	1	3	10	20	test_extra	id-1323_AU26-33	emotion	Verrassing	0.28553973272393224	0.8611561381803767
id-1302_AU1-100_AU11-66_AU13-33_AU24-33	1	1	3	10	21	train	id-1302_AU1-100_AU11-66_AU13-33_AU24-33	emotion	Walging	0.17981699007170562	1.044812549542257
id-1270_AU11-100_AU15-100_AU20-66_AU7-66	1	1	3	10	22	test	id-1270_AU11-100_AU15-100_AU20-66_AU7-66	emotion	Bang	0.4774149082928182	0.7780182575479557
id-1302_AU15-100_AU4-100_AU5-66_AU9-100	1	1	3	10	23	test_extra	id-1302_AU15-100_AU4-100_AU5-66_AU9-100	emotion	Walging	0.36859775769673137	3.46156328350844
id-1363_AU13-100_AU20-66_AU22-66_AU5-66	1	1	3	10	24	test_extra	id-1363_AU13-100_AU20-66_AU22-66_AU5-66	emotion	Geen van allen	0.0	2.4364891925979464
id-1367_AU43-100	1	1	3	10	25	test_extra	id-1367_AU43-100	emotion	Verdrietig	0.06354998998447302	2.0199262139649363
id-1260_AU12-33	1	1	3	10	26	test_extra	id-1260_AU12-33	emotion	Blij	0.12376274458753962	0.8946804265360697
id-1270_AU1-100_AU11-33_AU24-33_AU6-33	1	1	3	10	27	test_extra	id-1270_AU1-100_AU11-33_AU24-33_AU6-33	emotion	Geen van allen	0.0	5.545159685610996
id-1323_AU12-66_AU16Open-33_AU7-66_AU9-100	1	1	3	10	28	test	id-1323_AU12-66_AU16Open-33_AU7-66_AU9-100	emotion	Blij	0.4378743418792793	1.719713283720921
id-1335_AU11-100_AU16Open-100_AU5-33	1	1	3	10	29	test_extra	id-1335_AU11-100_AU16Open-100_AU5-33	emotion	Boos	0.15705123538991614	1.7780427079997023
id-1260_AU17-33_AU24-100_AU6-33	1	1	3	10	30	test_extra	id-1260_AU17-33_AU24-100_AU6-33	emotion	Geen van allen	0.0	1.0612429523825997
id-1377_AU17-66_AU24-33_AU4-100	1	1	3	10	31	test	id-1377_AU17-66_AU24-33_AU4-100	emotion	Verdrietig	0.3725266999419902	1.2696435244652091
id-1355_AU13-66_AU14-100_AU15-100_AU7-33	1	1	3	10	32	test	id-1355_AU13-66_AU14-100_AU15-100_AU7-33	emotion	Verdrietig	0.3607949964081032	0.928052578736242
id-1380_AU10Open-33_AU13-33_AU16Open-100_AU22-33_AU43-66	1	1	3	10	33	test	id-1380_AU10Open-33_AU13-33_AU16Open-100_AU22-33_AU43-66	emotion	Blij	0.3278273720845704	1.3197494462438044
id-1307_AU11-66_AU20-33_AU7-100_AU9-66	1	1	3	10	34	test_extra	id-1307_AU11-66_AU20-33_AU7-100_AU9-66	emotion	Geen van allen	0.0	0.6943642006699521
id-1376_AU2-33	1	1	3	10	35	test_extra	id-1376_AU2-33	emotion	Blij	0.18087420613574304	1.1279830307830707
id-1289_AU1-100_AU12-100_AU13-100_AU17-33	1	1	3	10	36	test_extra	id-1289_AU1-100_AU12-100_AU13-100_AU17-33	emotion	Blij	0.268815916781213	0.8195408627470897
id-1270_AU2-33_AU24-66_AU4-66	1	1	3	11	1	test_extra	id-1270_AU2-33_AU24-66_AU4-66	emotion	Walging	0.09206225082709243	5.286786914599362
id-1344_AU13-66_AU14-66_AU24-33_AU9-33	1	1	3	11	2	test	id-1344_AU13-66_AU14-66_AU24-33_AU9-33	emotion	Boos	0.22381499904656127	1.4031297184083087
id-1273_AU15-66_AU20-66_AU5-66	1	1	3	11	3	train	id-1273_AU15-66_AU20-66_AU5-66	emotion	Verrassing	0.25162796975257945	2.5031616549276805
id-1302_AU2-33_AU43-66	1	1	3	11	4	test_extra	id-1302_AU2-33_AU43-66	emotion	Geen van allen	0.0	2.2197163022938184
id-1377_AU10Open-33_AU13-33_AU24-100_AU6-66	1	1	3	11	5	train	id-1377_AU10Open-33_AU13-33_AU24-100_AU6-66	emotion	Blij	0.13149841084272534	1.3947942267950566
id-1273_AU12-100_AU16Open-33_AU20-100_AU22-66_AU5-66	1	1	3	11	6	test	id-1273_AU12-100_AU16Open-33_AU20-100_AU22-66_AU5-66	emotion	Blij	0.5156964919661814	0.7529399406339508
id-1302_AU1-33_AU22-100	1	1	3	11	7	test_extra	id-1302_AU1-33_AU22-100	emotion	Verrassing	0.2803983163969419	1.0864051856697188
id-1311_AU10Open-66_AU15-100_AU2-66	1	1	3	11	8	test_extra	id-1311_AU10Open-66_AU15-100_AU2-66	emotion	Walging	0.2191539102808966	0.7865173559002869
id-1280_AU26-66_AU9-100	1	1	3	11	9	test_extra	id-1280_AU26-66_AU9-100	emotion	Verrassing	0.37552887715635336	1.2114423895982327
id-1363_AU1-33_AU15-100_AU2-66_AU22-66_AU5-100	1	1	3	11	10	test	id-1363_AU1-33_AU15-100_AU2-66_AU22-66_AU5-100	emotion	Bang	0.375417638541302	2.1115052363202267
id-1273_AU11-100_AU15-33_AU20-33	1	1	3	11	11	test_extra	id-1273_AU11-100_AU15-33_AU20-33	emotion	Geen van allen	0.0	1.303368548022263
id-1266_AU25-100_AU4-100	1	1	3	11	12	train	id-1266_AU25-100_AU4-100	emotion	Verdrietig	0.3120149030097055	1.1613431086880155
id-1306_AU24-66_AU43-100_AU7-100	1	1	3	11	13	test	id-1306_AU24-66_AU43-100_AU7-100	emotion	Verdrietig	0.3253209060335575	3.1199146830113023
id-1296_AU12-100_AU14-66_AU17-100	1	1	3	11	14	train	id-1296_AU12-100_AU14-66_AU17-100	emotion	Blij	0.5161382463231773	1.2696112257144705
id-1296_AU11-66_AU26-66_AU4-66_AU6-100	1	1	3	11	15	test_extra	id-1296_AU11-66_AU26-66_AU4-66_AU6-100	emotion	Verrassing	0.4252479842542144	1.328036036949925
id-1289_AU10Open-66_AU22-66_AU43-100_AU5-33	1	1	3	11	16	test_extra	id-1289_AU10Open-66_AU22-66_AU43-100_AU5-33	emotion	Geen van allen	0.0	1.5196811057176092
id-1279_AU22-33_AU26-33_AU4-33	1	1	3	11	17	test	id-1279_AU22-33_AU26-33_AU4-33	emotion	Bang	0.07186960905543087	0.8529015443637036
id-1335_AU11-66_AU14-100	1	1	3	11	18	train	id-1335_AU11-66_AU14-100	emotion	Blij	0.5294554480070833	1.5864718961674953
id-1290_AU11-66_AU16Open-100_AU43-33_AU6-33	1	1	3	11	19	test_extra	id-1290_AU11-66_AU16Open-100_AU43-33_AU6-33	emotion	Verdrietig	0.0985273943171943	2.945010930259741
id-1260_AU13-33_AU4-66	1	1	3	11	20	test_extra	id-1260_AU13-33_AU4-66	emotion	Verdrietig	0.15804328644815727	0.9031079846754436
id-1376_AU10Open-100_AU11-100_AU16Open-66_AU22-33	1	1	3	11	21	test_extra	id-1376_AU10Open-100_AU11-100_AU16Open-66_AU22-33	emotion	Geen van allen	0.0	1.2698315816523973
id-1345_AU12-66	1	1	3	11	22	test_extra	id-1345_AU12-66	emotion	Boos	0.11783623910008155	1.3115238307400432
id-1355_AU10Open-33	1	1	3	11	23	test_extra	id-1355_AU10Open-33	emotion	Bang	0.16971977201780414	1.1195871676791285
id-1345_AU26-66_AU27i-100_AU9-100	1	1	3	11	24	test_extra	id-1345_AU26-66_AU27i-100_AU9-100	emotion	Verrassing	0.4340800005657953	3.420084145782312
id-1279_AU1-33_AU14-33_AU26-33	1	1	3	11	25	test_extra	id-1279_AU1-33_AU14-33_AU26-33	emotion	Blij	0.2191539102808966	1.052851918997476
id-1290_AU2-100_AU9-66	1	1	3	11	26	train	id-1290_AU2-100_AU9-66	emotion	Boos	0.28793390069662395	4.2199692588365
id-1274_AU10Open-66_AU2-33_AU43-100_AU9-66	1	1	3	11	27	test	id-1274_AU10Open-66_AU2-33_AU43-100_AU9-66	emotion	Walging	0.545358584743825	0.9611907914149924
id-1306_AU11-33_AU6-66	1	1	3	11	28	train	id-1306_AU11-33_AU6-66	emotion	Verdrietig	0.09601401078227584	1.3448796826378384
id-1291_AU14-33_AU7-33	1	1	3	11	29	test_extra	id-1291_AU14-33_AU7-33	emotion	Geen van allen	0.0	0.8781012079743961
id-1289_AU1-66_AU12-100_AU27i-100	1	1	3	11	30	train	id-1289_AU1-66_AU12-100_AU27i-100	emotion	Blij	0.7559991575537016	0.8361638506394229
id-1358_AU10Open-33_AU22-100_AU6-100	1	1	3	11	31	train	id-1358_AU10Open-33_AU22-100_AU6-100	emotion	Walging	0.2304257992299693	1.002968768018036
id-1360_AU11-33_AU25-100	1	1	3	11	32	test_extra	id-1360_AU11-33_AU25-100	emotion	Verdrietig	0.09151780338097044	1.0863088931437233
id-1377_AU10Open-100_AU22-66_AU4-66_AU5-100_AU7-100	1	1	3	11	33	test_extra	id-1377_AU10Open-100_AU22-66_AU4-66_AU5-100_AU7-100	emotion	Verrassing	0.14557706168267093	1.2362858614178551
id-1269_AU16Open-66_AU5-100	1	1	3	11	34	train	id-1269_AU16Open-66_AU5-100	emotion	Bang	0.2825514537396814	1.7281230322660122
id-1354_AU1-66_AU10Open-100	1	1	3	11	35	test	id-1354_AU1-66_AU10Open-100	emotion	Verrassing	0.40245395191667743	1.3863452367768332
id-1323_AU22-66_AU7-100	1	1	3	11	36	test_extra	id-1323_AU22-66_AU7-100	emotion	Geen van allen	0.0	1.411414497972146
id-1266_AU13-66_AU17-100_AU2-100_AU9-33	1	1	3	12	1	test	id-1266_AU13-66_AU17-100_AU2-100_AU9-33	valence	-0.3559855444612677		2.8942315645072085
id-1266_AU13-66_AU17-100_AU2-100_AU9-33	1	1	3	12	1	test	id-1266_AU13-66_AU17-100_AU2-100_AU9-33	arousal	0.2771795842370177		2.8942315645072085
id-1260_AU13-66_AU4-100_AU5-33_AU9-100	1	1	3	12	2	test_extra	id-1260_AU13-66_AU4-100_AU5-33_AU9-100	valence	-0.4320740577812335		0.943712037653313
id-1260_AU13-66_AU4-100_AU5-33_AU9-100	1	1	3	12	2	test_extra	id-1260_AU13-66_AU4-100_AU5-33_AU9-100	arousal	0.3587029913655523		0.943712037653313
id-1279_AU1-100_AU10Open-33_AU25-100_AU5-100	1	1	3	12	3	test_extra	id-1279_AU1-100_AU10Open-33_AU25-100_AU5-100	valence	-0.16032936735278475		1.5271620388884912
id-1279_AU1-100_AU10Open-33_AU25-100_AU5-100	1	1	3	12	3	test_extra	id-1279_AU1-100_AU10Open-33_AU25-100_AU5-100	arousal	0.3532680975569833		1.5271620388884912
id-1294_AU16Open-66_AU7-100	1	1	3	12	4	train	id-1294_AU16Open-66_AU7-100	valence	-0.013587234521422437		1.8937893433467248
id-1294_AU16Open-66_AU7-100	1	1	3	12	4	train	id-1294_AU16Open-66_AU7-100	arousal	-0.15761192044850025		1.8937893433467248
id-1310_AU13-66	1	1	3	12	5	train	id-1310_AU13-66	valence	-0.2798970311413021		1.9104084070932004
id-1310_AU13-66	1	1	3	12	5	train	id-1310_AU13-66	arousal	0.20652596472562101		1.9104084070932004
id-1273_AU1-33_AU13-33_AU26-33	1	1	3	12	6	test	id-1273_AU1-33_AU13-33_AU26-33	valence	0.105980429267095		1.4186886587922345
id-1273_AU1-33_AU13-33_AU26-33	1	1	3	12	6	test	id-1273_AU1-33_AU13-33_AU26-33	arousal	-0.5516417215697509		1.4186886587922345
id-1380_AU12-33_AU13-33_AU22-33_AU9-33	1	1	3	12	7	test_extra	id-1380_AU12-33_AU13-33_AU22-33_AU9-33	valence	-0.17935149568277614		0.8185755226222682
id-1380_AU12-33_AU13-33_AU22-33_AU9-33	1	1	3	12	7	test_extra	id-1380_AU12-33_AU13-33_AU22-33_AU9-33	arousal	-0.6494698101239924		0.8185755226222682
id-1309_AU15-33	1	1	3	12	8	test	id-1309_AU15-33	valence	-0.8288213058067685		1.8023250268197444
id-1309_AU15-33	1	1	3	12	8	test	id-1309_AU15-33	arousal	-0.6712093853582682		1.8023250268197444
id-1297_AU22-66_AU9-100	1	1	3	12	9	test_extra	id-1297_AU22-66_AU9-100	valence	-0.5788161906125957		2.827206230820593
id-1297_AU22-66_AU9-100	1	1	3	12	9	test_extra	id-1297_AU22-66_AU9-100	arousal	-0.31522384089700045		2.827206230820593
id-1266_AU14-66_AU16Open-66_AU27i-33_AU43-66	1	1	3	12	10	train	id-1266_AU14-66_AU16Open-66_AU27i-33_AU43-66	valence	-0.06521872570282768		1.4104654581497016
id-1266_AU14-66_AU16Open-66_AU27i-33_AU43-66	1	1	3	12	10	train	id-1266_AU14-66_AU16Open-66_AU27i-33_AU43-66	arousal	0.1630468142570692		1.4104654581497016
id-1354_AU14-100_AU2-100_AU20-100_AU4-66	1	1	3	12	11	test_extra	id-1354_AU14-100_AU2-100_AU20-100_AU4-66	valence	-0.11685021688423293		1.6355219205834146
id-1354_AU14-100_AU2-100_AU20-100_AU4-66	1	1	3	12	11	test_extra	id-1354_AU14-100_AU2-100_AU20-100_AU4-66	arousal	0.1875038363956296		1.6355219205834146
id-1310_AU16Open-100_AU27i-66_AU6-33_AU7-66	1	1	3	12	12	test_extra	id-1310_AU16Open-100_AU27i-66_AU6-33_AU7-66	valence	-0.08967574784138807		1.0024079168761089
id-1310_AU16Open-100_AU27i-66_AU6-33_AU7-66	1	1	3	12	12	test_extra	id-1310_AU16Open-100_AU27i-66_AU6-33_AU7-66	arousal	0.23098298686418134		1.0024079168761089
id-1341_AU12-66_AU13-33_AU14-100_AU15-33_AU22-100	1	1	3	12	13	test_extra	id-1341_AU12-66_AU13-33_AU14-100_AU15-33_AU22-100	valence	0.9021923722224496		1.152171773792361
id-1341_AU12-66_AU13-33_AU14-100_AU15-33_AU22-100	1	1	3	12	13	test_extra	id-1341_AU12-66_AU13-33_AU14-100_AU15-33_AU22-100	arousal	0.2255480930556124		1.152171773792361
id-1302_AU15-66_AU24-100_AU25-100_AU43-33	1	1	3	12	14	test	id-1302_AU15-66_AU24-100_AU25-100_AU43-33	valence	0.1630468142570692		0.8519920478647691
id-1302_AU15-66_AU24-100_AU25-100_AU43-33	1	1	3	12	14	test	id-1302_AU15-66_AU24-100_AU25-100_AU43-33	arousal	-0.1440246859270778		0.8519920478647691
id-1358_AU12-33_AU25-33_AU6-33_AU9-33	1	1	3	12	15	train	id-1358_AU12-33_AU25-33_AU6-33_AU9-33	valence	-0.1277200045013709		2.9789858917865786
id-1358_AU12-33_AU25-33_AU6-33_AU9-33	1	1	3	12	15	train	id-1358_AU12-33_AU25-33_AU6-33_AU9-33	arousal	0.19293873020419855		2.9789858917865786
id-1279_AU1-100_AU15-66_AU16Open-66_AU27i-100_AU43-33	1	1	3	12	16	test_extra	id-1279_AU1-100_AU15-66_AU16Open-66_AU27i-100_AU43-33	valence	0.0027174469042844872		4.327636377685849
id-1279_AU1-100_AU15-66_AU16Open-66_AU27i-100_AU43-33	1	1	3	12	16	test_extra	id-1279_AU1-100_AU15-66_AU16Open-66_AU27i-100_AU43-33	arousal	-0.1820689425870606		4.327636377685849
id-1355_AU13-66_AU2-66_AU6-33	1	1	3	12	17	train	id-1355_AU13-66_AU2-66_AU6-33	valence	0.07880596022425011		3.6855049863843306
id-1355_AU13-66_AU2-66_AU6-33	1	1	3	12	17	train	id-1355_AU13-66_AU2-66_AU6-33	arousal	-0.07065361951139666		3.6855049863843306
id-1274_AU15-100_AU16Open-66_AU24-33	1	1	3	12	18	test_extra	id-1274_AU15-100_AU16Open-66_AU24-33	valence	-0.3369634161312764		2.2022281909485173
id-1274_AU15-100_AU16Open-66_AU24-33	1	1	3	12	18	test_extra	id-1274_AU15-100_AU16Open-66_AU24-33	arousal	-0.1032629823628105		2.2022281909485173
id-1356_AU13-100_AU15-33_AU16Open-100	1	1	3	12	19	train	id-1356_AU13-100_AU15-33_AU16Open-100	valence	-0.09782808855424154		3.2606330795933904
id-1356_AU13-100_AU15-33_AU16Open-100	1	1	3	12	19	train	id-1356_AU13-100_AU15-33_AU16Open-100	arousal	-0.26902724352416424		3.2606330795933904
id-1354_AU10Open-33_AU17-66_AU6-66_AU7-100	1	1	3	12	20	test_extra	id-1354_AU10Open-33_AU17-66_AU6-66_AU7-100	valence	-0.4837055489626387		0.9102538560764516
id-1354_AU10Open-33_AU17-66_AU6-66_AU7-100	1	1	3	12	20	test_extra	id-1354_AU10Open-33_AU17-66_AU6-66_AU7-100	arousal	0.3587029913655523		0.9102538560764516
id-1315_AU15-33_AU20-100	1	1	3	12	21	test_extra	id-1315_AU15-33_AU20-100	valence	0.03804425665998282		2.527128532714414
id-1315_AU15-33_AU20-100	1	1	3	12	21	test_extra	id-1315_AU15-33_AU20-100	arousal	-0.4347915046855179		2.527128532714414
id-1273_AU1-33_AU25-100_AU4-33	1	1	3	12	22	test_extra	id-1273_AU1-33_AU25-100_AU4-33	valence	0.0407617035642673		2.1268525746345404
id-1273_AU1-33_AU25-100_AU4-33	1	1	3	12	22	test_extra	id-1273_AU1-33_AU25-100_AU4-33	arousal	-0.7228408765396734		2.1268525746345404
id-1362_AU26-66_AU9-66	1	1	3	12	23	train	id-1362_AU26-66_AU9-66	valence	0.013587234521422437		1.2686096627003278
id-1362_AU26-66_AU9-66	1	1	3	12	23	train	id-1362_AU26-66_AU9-66	arousal	-0.6386000225068544		1.2686096627003278
id-1280_AU1-66_AU17-100_AU26-33	1	1	3	12	24	test_extra	id-1280_AU1-66_AU17-100_AU26-33	valence	-0.04619659737283628		3.8106101082375967
id-1280_AU1-66_AU17-100_AU26-33	1	1	3	12	24	test_extra	id-1280_AU1-66_AU17-100_AU26-33	arousal	0.13315489830993985		3.8106101082375967
id-1377_AU13-66_AU5-100	1	1	3	12	25	train	id-1377_AU13-66_AU5-100	valence	0.05163149118140525		1.1525324934445962
id-1377_AU13-66_AU5-100	1	1	3	12	25	train	id-1377_AU13-66_AU5-100	arousal	0.28261447804558665		1.1525324934445962
id-1342_AU10Open-66_AU25-66_AU26-33_AU5-100	1	1	3	12	26	train	id-1342_AU10Open-66_AU25-66_AU26-33_AU5-100	valence	-0.4945753365797766		0.8602916184463538
id-1342_AU10Open-66_AU25-66_AU26-33_AU5-100	1	1	3	12	26	train	id-1342_AU10Open-66_AU25-66_AU26-33_AU5-100	arousal	0.625012787985432		0.8602916184463538
id-1310_AU12-33_AU14-33_AU22-100_AU6-100	1	1	3	12	27	test	id-1310_AU12-33_AU14-33_AU22-100_AU6-100	valence	-0.5869685313254491		0.8270106271957047
id-1310_AU12-33_AU14-33_AU22-100_AU6-100	1	1	3	12	27	test	id-1310_AU12-33_AU14-33_AU22-100_AU6-100	arousal	0.6630570446454148		0.8270106271957047
id-1360_AU1-100_AU11-66	1	1	3	12	28	test	id-1360_AU1-100_AU11-66	valence	0.05163149118140525		1.35204004319894
id-1360_AU1-100_AU11-66	1	1	3	12	28	test	id-1360_AU1-100_AU11-66	arousal	-0.6059906596554406		1.35204004319894
id-1285_AU24-66_AU9-66	1	1	3	12	29	test_extra	id-1285_AU24-66_AU9-66	valence	0.07337106641568114		5.394168778158928
id-1285_AU24-66_AU9-66	1	1	3	12	29	test_extra	id-1285_AU24-66_AU9-66	arousal	0.524467252526906		5.394168778158928
id-1318_AU13-33_AU20-66_AU5-100_AU6-66	1	1	3	12	30	test_extra	id-1318_AU13-33_AU20-66_AU5-100_AU6-66	valence	-0.04347915046855179		4.427447656409639
id-1318_AU13-33_AU20-66_AU5-100_AU6-66	1	1	3	12	30	test_extra	id-1318_AU13-33_AU20-66_AU5-100_AU6-66	arousal	0.6494698101239924		4.427447656409639
id-1373_AU1-66_AU24-33_AU26-66_AU7-33	1	1	3	12	31	train	id-1373_AU1-66_AU24-33_AU26-66_AU7-33	valence	0.14674213283136228		3.4355102688859915
id-1373_AU1-66_AU24-33_AU26-66_AU7-33	1	1	3	12	31	train	id-1373_AU1-66_AU24-33_AU26-66_AU7-33	arousal	0.5326195932397594		3.4355102688859915
id-1318_AU2-66_AU22-100_AU5-33_AU7-66	1	1	3	12	32	train	id-1318_AU2-66_AU22-100_AU5-33_AU7-66	valence	-0.0407617035642673		1.7188783460151171
id-1318_AU2-66_AU22-100_AU5-33_AU7-66	1	1	3	12	32	train	id-1318_AU2-66_AU22-100_AU5-33_AU7-66	arousal	-0.7038187482096819		1.7188783460151171
id-1358_AU11-100_AU12-100_AU14-100_AU16Open-66_AU6-100	1	1	3	12	33	test	id-1358_AU11-100_AU12-100_AU14-100_AU16Open-66_AU6-100	valence	0.864148115562467		2.0604871013274533
id-1358_AU11-100_AU12-100_AU14-100_AU16Open-66_AU6-100	1	1	3	12	33	test	id-1358_AU11-100_AU12-100_AU14-100_AU16Open-66_AU6-100	arousal	0.6277302348897165		2.0604871013274533
id-1302_AU14-100_AU17-33_AU26-66_AU9-33	1	1	3	12	34	test_extra	id-1302_AU14-100_AU17-33_AU26-66_AU9-33	valence	-0.7527327924868029		2.0438523409939084
id-1302_AU14-100_AU17-33_AU26-66_AU9-33	1	1	3	12	34	test_extra	id-1302_AU14-100_AU17-33_AU26-66_AU9-33	arousal	0.2282655399598969		2.0438523409939084
id-1264_AU13-100_AU15-33_AU22-33	1	1	3	12	35	test_extra	id-1264_AU13-100_AU15-33_AU22-33	valence	0.2798970311413021		2.1520332212239737
id-1264_AU13-100_AU15-33_AU22-33	1	1	3	12	35	test_extra	id-1264_AU13-100_AU15-33_AU22-33	arousal	-0.5353370401440439		2.1520332212239737
id-1367_AU14-66_AU2-100_AU20-66_AU9-33	1	1	3	12	36	test_extra	id-1367_AU14-66_AU2-100_AU20-66_AU9-33	valence	-0.5407719339526129		0.9270283764089982
id-1367_AU14-66_AU2-100_AU20-66_AU9-33	1	1	3	12	36	test_extra	id-1367_AU14-66_AU2-100_AU20-66_AU9-33	arousal	0.4891404427712077		0.9270283764089982
id-1270_AU13-100_AU17-100_AU25-100	1	1	4	13	1	train	id-1270_AU13-100_AU17-100_AU25-100	valence	0.250005115194173		7.394581115433541
id-1270_AU13-100_AU17-100_AU25-100	1	1	4	13	1	train	id-1270_AU13-100_AU17-100_AU25-100	arousal	-0.13315489830994		7.394581115433541
id-1376_AU16Open-66_AU17-66_AU6-33	1	1	4	13	2	test_extra	id-1376_AU16Open-66_AU17-66_AU6-33	valence	0.47283576134550104		2.26056455794969
id-1376_AU16Open-66_AU17-66_AU6-33	1	1	4	13	2	test_extra	id-1376_AU16Open-66_AU17-66_AU6-33	arousal	-0.073371066415681		2.26056455794969
id-1358_AU14-100	1	1	4	13	3	test_extra	id-1358_AU14-100	valence	-0.21196085853418997		2.44371173579202
id-1358_AU14-100	1	1	4	13	3	test_extra	id-1358_AU14-100	arousal	0.076088513319966		2.44371173579202
id-1354_AU12-33_AU13-33	1	1	4	13	4	test_extra	id-1354_AU12-33_AU13-33	valence	-0.073371066415681		2.57731806900847
id-1354_AU12-33_AU13-33	1	1	4	13	4	test_extra	id-1354_AU12-33_AU13-33	arousal	0.233700433768466		2.57731806900847
id-1280_AU11-33_AU17-66_AU2-66_AU26-66_AU9-66	1	1	4	13	5	test	id-1280_AU11-33_AU17-66_AU2-66_AU26-66_AU9-66	valence	-0.21196085853418997		1.9272644289376293
id-1280_AU11-33_AU17-66_AU2-66_AU26-66_AU9-66	1	1	4	13	5	test	id-1280_AU11-33_AU17-66_AU2-66_AU26-66_AU9-66	arousal	0.26902724352416396		1.9272644289376293
id-1294_AU12-33_AU13-33_AU15-100_AU22-33	1	1	4	13	6	train	id-1294_AU12-33_AU13-33_AU15-100_AU22-33	valence	0.673926832262553		2.5605151740710403
id-1294_AU12-33_AU13-33_AU15-100_AU22-33	1	1	4	13	6	train	id-1294_AU12-33_AU13-33_AU15-100_AU22-33	arousal	0.13315489830994		2.5605151740710403
id-1293_AU22-66_AU25-100_AU5-33_AU9-33	1	1	4	13	7	test	id-1293_AU22-66_AU25-100_AU5-33_AU9-33	valence	0.29076681875844		2.2451031175223797
id-1293_AU22-66_AU25-100_AU5-33_AU9-33	1	1	4	13	7	test	id-1293_AU22-66_AU25-100_AU5-33_AU9-33	arousal	0.14945957973564702		2.2451031175223797
id-1290_AU10Open-33_AU2-66_AU9-33	1	1	4	13	8	test_extra	id-1290_AU10Open-33_AU2-66_AU9-33	valence	-0.198373624012768		1.60211354549392
id-1290_AU10Open-33_AU2-66_AU9-33	1	1	4	13	8	test_extra	id-1290_AU10Open-33_AU2-66_AU9-33	arousal	0.14945957973564702		1.60211354549392
id-1323_AU2-33_AU22-66	1	1	4	13	9	train	id-1323_AU2-33_AU22-66	valence	0.500010230388346		1.91051013305332
id-1323_AU2-33_AU22-66	1	1	4	13	9	train	id-1323_AU2-33_AU22-66	arousal	-0.6413174694111391		1.91051013305332
id-1355_AU10Open-100_AU12-100_AU27i-66	1	1	4	13	10	test_extra	id-1355_AU10Open-100_AU12-100_AU27i-66	valence	-0.5190323587183371		2.6857383221904505
id-1355_AU10Open-100_AU12-100_AU27i-66	1	1	4	13	10	test_extra	id-1355_AU10Open-100_AU12-100_AU27i-66	arousal	0.418486823259811		2.6857383221904505
id-1358_AU13-33_AU15-33	1	1	4	13	11	test_extra	id-1358_AU13-33_AU15-33	valence	-0.16304681425706902		2.79388086652398
id-1358_AU13-33_AU15-33	1	1	4	13	11	test_extra	id-1358_AU13-33_AU15-33	arousal	0.16848170806563798		2.79388086652398
id-1370_AU10Open-100_AU2-33_AU27i-66_AU5-66	1	1	4	13	12	test	id-1370_AU10Open-100_AU2-33_AU27i-66_AU5-66	valence	-0.046196597372836		5.02754871828438
id-1370_AU10Open-100_AU2-33_AU27i-66_AU5-66	1	1	4	13	12	test	id-1370_AU10Open-100_AU2-33_AU27i-66_AU5-66	arousal	0.14130723902279302		5.02754871828438
id-1339_AU20-100_AU43-33_AU9-100	1	1	4	13	13	train	id-1339_AU20-100_AU43-33_AU9-100	valence	-0.10869787617138		5.05373243717986
id-1339_AU20-100_AU43-33_AU9-100	1	1	4	13	13	train	id-1339_AU20-100_AU43-33_AU9-100	arousal	0.057066384989974		5.05373243717986
id-1306_AU22-66_AU25-33_AU43-33	1	1	4	13	14	train	id-1306_AU22-66_AU25-33_AU43-33	valence	0.043479150468552004		2.01882201941407
id-1306_AU22-66_AU25-33_AU43-33	1	1	4	13	14	train	id-1306_AU22-66_AU25-33_AU43-33	arousal	-0.05434893808569		2.01882201941407
id-1289_AU1-100_AU10Open-66_AU12-66_AU17-100_AU25-100	1	1	4	13	15	test_extra	id-1289_AU1-100_AU10Open-66_AU12-66_AU17-100_AU25-100	valence	0.804364283668208		1.06039503480497
id-1289_AU1-100_AU10Open-66_AU12-66_AU17-100_AU25-100	1	1	4	13	15	test_extra	id-1289_AU1-100_AU10Open-66_AU12-66_AU17-100_AU25-100	arousal	0.277179584237018		1.06039503480497
id-1311_AU16Open-100_AU43-100_AU6-66_AU9-100	1	1	4	13	16	test	id-1311_AU16Open-100_AU43-100_AU6-66_AU9-100	valence	0.323376181609854		1.3521523341733
id-1311_AU16Open-100_AU43-100_AU6-66_AU9-100	1	1	4	13	16	test	id-1311_AU16Open-100_AU43-100_AU6-66_AU9-100	arousal	0.154894473544216		1.3521523341733
id-1360_AU10Open-66_AU20-33	1	1	4	13	17	test_extra	id-1360_AU10Open-66_AU20-33	valence	0.14945957973564702		0.8020343380958371
id-1360_AU10Open-66_AU20-33	1	1	4	13	17	test_extra	id-1360_AU10Open-66_AU20-33	arousal	-0.201091070917052		0.8020343380958371
id-1342_AU14-33_AU20-33_AU43-100	1	1	4	13	18	test_extra	id-1342_AU14-33_AU20-33_AU43-100	valence	0.179351495682776		0.843611579493881
id-1342_AU14-33_AU20-33_AU43-100	1	1	4	13	18	test_extra	id-1342_AU14-33_AU20-33_AU43-100	arousal	0.135872345214224		0.843611579493881
id-1311_AU13-33_AU17-66_AU26-33_AU6-100	1	1	4	13	19	test_extra	id-1311_AU13-33_AU17-66_AU26-33_AU6-100	valence	0.24728766828988802		0.760420873804833
id-1311_AU13-33_AU17-66_AU26-33_AU6-100	1	1	4	13	19	test_extra	id-1311_AU13-33_AU17-66_AU26-33_AU6-100	arousal	0.013587234521423		0.760420873804833
id-1264_AU10Open-33_AU11-100_AU2-66_AU20-100	1	1	4	13	20	test_extra	id-1264_AU10Open-33_AU11-100_AU2-66_AU20-100	valence	0.07065361951139701		1.6187534374002999
id-1264_AU10Open-33_AU11-100_AU2-66_AU20-100	1	1	4	13	20	test_extra	id-1264_AU10Open-33_AU11-100_AU2-66_AU20-100	arousal	0.059783831894259		1.6187534374002999
id-1323_AU26-100	1	1	4	13	21	train	id-1323_AU26-100	valence	0.111415323075664		1.37705195147646
id-1323_AU26-100	1	1	4	13	21	train	id-1323_AU26-100	arousal	0.453813633015509		1.37705195147646
id-1360_AU2-100_AU26-33	1	1	4	13	22	test_extra	id-1360_AU2-100_AU26-33	valence	-0.127720004501371		0.7686652044721991
id-1360_AU2-100_AU26-33	1	1	4	13	22	test_extra	id-1360_AU2-100_AU26-33	arousal	0.461965973728363		0.7686652044721991
id-1378_AU25-33_AU4-66_AU43-33_AU7-33	1	1	4	13	23	train	id-1378_AU25-33_AU4-66_AU43-33_AU7-33	valence	0.665774491549699		2.3020723721347203
id-1378_AU25-33_AU4-66_AU43-33_AU7-33	1	1	4	13	23	train	id-1378_AU25-33_AU4-66_AU43-33_AU7-33	arousal	-0.250005115194173		2.3020723721347203
id-1260_AU22-100_AU25-100_AU26-100	1	1	4	13	24	test	id-1260_AU22-100_AU25-100_AU26-100	valence	0.39946469492982		1.72711513024115
id-1260_AU22-100_AU25-100_AU26-100	1	1	4	13	24	test	id-1260_AU22-100_AU25-100_AU26-100	arousal	0.144024685927078		1.72711513024115
id-1274_AU16Open-33_AU27i-100_AU6-100	1	1	4	13	25	train	id-1274_AU16Open-33_AU27i-100_AU6-100	valence	-0.7581676862953721		1.3114522905270902
id-1274_AU16Open-33_AU27i-100_AU6-100	1	1	4	13	25	train	id-1274_AU16Open-33_AU27i-100_AU6-100	arousal	-0.114132769979948		1.3114522905270902
id-1280_AU12-100_AU14-33_AU27i-66_AU4-66	1	1	4	13	26	test_extra	id-1280_AU12-100_AU14-33_AU27i-66_AU4-66	valence	-0.48642299586692295		0.826995534323942
id-1280_AU12-100_AU14-33_AU27i-66_AU4-66	1	1	4	13	26	test_extra	id-1280_AU12-100_AU14-33_AU27i-66_AU4-66	arousal	0.505445124196915		0.826995534323942
id-1315_AU15-100_AU2-33_AU25-33_AU26-66	1	1	4	13	27	train	id-1315_AU15-100_AU2-33_AU25-33_AU26-66	valence	-0.07880596022425		0.8103179102290601
id-1315_AU15-100_AU2-33_AU25-33_AU26-66	1	1	4	13	27	train	id-1315_AU15-100_AU2-33_AU25-33_AU26-66	arousal	0.315223840897		0.8103179102290601
id-1363_AU13-66_AU22-100_AU7-66	1	1	4	13	28	test_extra	id-1363_AU13-66_AU22-100_AU7-66	valence	-0.100545535458526		1.6186118662590199
id-1363_AU13-66_AU22-100_AU7-66	1	1	4	13	28	test_extra	id-1363_AU13-66_AU22-100_AU7-66	arousal	-0.263592349715595		1.6186118662590199
id-1310_AU27i-100_AU5-33_AU7-100	1	1	4	13	29	train	id-1310_AU27i-100_AU5-33_AU7-100	valence	-0.47827065515407		0.7521382072445699
id-1310_AU27i-100_AU5-33_AU7-100	1	1	4	13	29	train	id-1310_AU27i-100_AU5-33_AU7-100	arousal	0.4972927834840611		0.7521382072445699
id-1269_AU15-66_AU16Open-66_AU26-33_AU27i-100	1	1	4	13	30	test	id-1269_AU15-66_AU16Open-66_AU26-33_AU27i-100	valence	-0.20924341162990498		0.927143987813906
id-1269_AU15-66_AU16Open-66_AU26-33_AU27i-100	1	1	4	13	30	test	id-1269_AU15-66_AU16Open-66_AU26-33_AU27i-100	arousal	0.21196085853418997		0.927143987813906
id-1377_AU2-66_AU25-100_AU9-100	1	1	4	13	31	test_extra	id-1377_AU2-66_AU25-100_AU9-100	valence	-0.198373624012768		1.55208006949761
id-1377_AU2-66_AU25-100_AU9-100	1	1	4	13	31	test_extra	id-1377_AU2-66_AU25-100_AU9-100	arousal	0.144024685927078		1.55208006949761
id-1294_AU11-66_AU20-33_AU25-33	1	1	4	13	32	test	id-1294_AU11-66_AU20-33_AU25-33	valence	-0.065218725702828		2.52725621841455
id-1294_AU11-66_AU20-33_AU25-33	1	1	4	13	32	test	id-1294_AU11-66_AU20-33_AU25-33	arousal	0.097828088554242		2.52725621841455
id-1291_AU10Open-33_AU11-100_AU15-100	1	1	4	13	33	test_extra	id-1291_AU10Open-33_AU11-100_AU15-100	valence	-0.5081625711011989		1.01882352870234
id-1291_AU10Open-33_AU11-100_AU15-100	1	1	4	13	33	test_extra	id-1291_AU10Open-33_AU11-100_AU15-100	arousal	0.535337040144044		1.01882352870234
id-1363_AU7-66	1	1	4	13	34	test_extra	id-1363_AU7-66	valence	0.12228511069280198		0.752014445690293
id-1363_AU7-66	1	1	4	13	34	test_extra	id-1363_AU7-66	arousal	-0.402182141834104		0.752014445690293
id-1260_AU24-66_AU26-66_AU5-33_AU6-66	1	1	4	13	35	train	id-1260_AU24-66_AU26-66_AU5-33_AU6-66	valence	0.092393194745673		0.7186727810913001
id-1260_AU24-66_AU26-66_AU5-33_AU6-66	1	1	4	13	35	train	id-1260_AU24-66_AU26-66_AU5-33_AU6-66	arousal	-0.198373624012768		0.7186727810913001
id-1273_AU15-100_AU2-100	1	1	4	13	36	train	id-1273_AU15-100_AU2-100	valence	0.7282757703482421		2.00218635350757
id-1273_AU15-100_AU2-100	1	1	4	13	36	train	id-1273_AU15-100_AU2-100	arousal	-0.092393194745673		2.00218635350757
id-1363_AU14-66	1	1	4	14	1	test_extra	id-1363_AU14-66	valence	0.377725119695544		2.0604421245698203
id-1363_AU14-66	1	1	4	14	1	test_extra	id-1363_AU14-66	arousal	-0.07065361951139701		2.0604421245698203
id-1366_AU14-33_AU2-100_AU26-100_AU27i-100	1	1	4	14	2	test	id-1366_AU14-33_AU2-100_AU26-100_AU27i-100	valence	0.625012787985432		1.41059767171464
id-1366_AU14-33_AU2-100_AU26-100_AU27i-100	1	1	4	14	2	test	id-1366_AU14-33_AU2-100_AU26-100_AU27i-100	arousal	0.20924341162990498		1.41059767171464
id-1318_AU22-100_AU26-100_AU27i-33_AU4-33_AU6-33	1	1	4	14	3	test	id-1318_AU22-100_AU26-100_AU27i-33_AU4-33_AU6-33	valence	-0.119567663788517		1.89375553531136
id-1318_AU22-100_AU26-100_AU27i-33_AU4-33_AU6-33	1	1	4	14	3	test	id-1318_AU22-100_AU26-100_AU27i-33_AU4-33_AU6-33	arousal	0.315223840897		1.89375553531136
id-1367_AU16Open-100	1	1	4	14	4	test_extra	id-1367_AU16Open-100	valence	-0.040761703564267		1.55215674129067
id-1367_AU16Open-100	1	1	4	14	4	test_extra	id-1367_AU16Open-100	arousal	-0.48642299586692295		1.55215674129067
id-1361_AU10Open-33_AU11-100_AU13-66_AU2-100	1	1	4	14	5	test_extra	id-1361_AU10Open-33_AU11-100_AU13-66_AU2-100	valence	-0.21739575234275896		7.00277014581661
id-1361_AU10Open-33_AU11-100_AU13-66_AU2-100	1	1	4	14	5	test_extra	id-1361_AU10Open-33_AU11-100_AU13-66_AU2-100	arousal	-0.366855332078406		7.00277014581661
id-1366_AU20-100_AU22-66_AU4-100	1	1	4	14	6	test_extra	id-1366_AU20-100_AU22-66_AU4-100	valence	-0.29076681875844		0.935365981029463
id-1366_AU20-100_AU22-66_AU4-100	1	1	4	14	6	test_extra	id-1366_AU20-100_AU22-66_AU4-100	arousal	0.154894473544216		0.935365981029463
id-1339_AU10Open-100_AU12-33_AU20-100_AU27i-33	1	1	4	14	7	test	id-1339_AU10Open-100_AU12-33_AU20-100_AU27i-33	valence	-0.263592349715595		0.801995700341649
id-1339_AU10Open-100_AU12-33_AU20-100_AU27i-33	1	1	4	14	7	test	id-1339_AU10Open-100_AU12-33_AU20-100_AU27i-33	arousal	0.160329367352785		0.801995700341649
id-1293_AU2-33_AU25-33_AU7-100	1	1	4	14	8	train	id-1293_AU2-33_AU25-33_AU7-100	valence	0.24728766828988802		2.56058611057233
id-1293_AU2-33_AU25-33_AU7-100	1	1	4	14	8	train	id-1293_AU2-33_AU25-33_AU7-100	arousal	0.138589792118509		2.56058611057233
id-1378_AU10Open-100_AU24-66_AU43-100	1	1	4	14	9	test_extra	id-1378_AU10Open-100_AU24-66_AU43-100	valence	0.02445702213856		0.685287347161648
id-1378_AU10Open-100_AU24-66_AU43-100	1	1	4	14	9	test_extra	id-1378_AU10Open-100_AU24-66_AU43-100	arousal	-0.29076681875844		0.685287347161648
id-1295_AU11-33_AU12-100_AU13-100_AU20-33_AU9-66	1	1	4	14	10	test	id-1295_AU11-33_AU12-100_AU13-100_AU20-33_AU9-66	valence	-0.13315489830994		1.4936353356752101
id-1295_AU11-33_AU12-100_AU13-100_AU20-33_AU9-66	1	1	4	14	10	test	id-1295_AU11-33_AU12-100_AU13-100_AU20-33_AU9-66	arousal	0.28533192494987103		1.4936353356752101
id-1296_AU17-66_AU26-66_AU4-66	1	1	4	14	11	test_extra	id-1296_AU17-66_AU26-66_AU4-66	valence	-0.23641788067275		0.635459436092788
id-1296_AU17-66_AU26-66_AU4-66	1	1	4	14	11	test_extra	id-1296_AU17-66_AU26-66_AU4-66	arousal	0.263592349715595		0.635459436092788
id-1270_AU22-66_AU26-100	1	1	4	14	12	test_extra	id-1270_AU22-66_AU26-100	valence	-0.062501278798543		1.4021006863658798
id-1270_AU22-66_AU26-100	1	1	4	14	12	test_extra	id-1270_AU22-66_AU26-100	arousal	-0.668491938453984		1.4021006863658798
id-1309_AU26-33_AU5-66	1	1	4	14	13	train	id-1309_AU26-33_AU5-66	valence	-0.347833203748414		1.63560251652598
id-1309_AU26-33_AU5-66	1	1	4	14	13	train	id-1309_AU26-33_AU5-66	arousal	0.144024685927078		1.63560251652598
id-1290_AU24-33_AU25-66_AU4-66	1	1	4	14	14	test_extra	id-1290_AU24-33_AU25-66_AU4-66	valence	-0.048914044277121		2.0606069387358703
id-1290_AU24-33_AU25-66_AU4-66	1	1	4	14	14	test_extra	id-1290_AU24-33_AU25-66_AU4-66	arousal	0.100545535458526		2.0606069387358703
id-1291_AU14-100_AU15-66	1	1	4	14	15	train	id-1291_AU14-100_AU15-66	valence	0.057066384989974		3.93576745143582
id-1291_AU14-100_AU15-66	1	1	4	14	15	train	id-1291_AU14-100_AU15-66	arousal	-0.39131235421696603		3.93576745143582
id-1347_AU11-100_AU16Open-100_AU22-100_AU24-33	1	1	4	14	16	test_extra	id-1347_AU11-100_AU16Open-100_AU22-100_AU24-33	valence	-0.008152340712853002		1.43555705679319
id-1347_AU11-100_AU16Open-100_AU22-100_AU24-33	1	1	4	14	16	test_extra	id-1347_AU11-100_AU16Open-100_AU22-100_AU24-33	arousal	-0.8967574784138809		1.43555705679319
id-1370_AU2-33_AU27i-66	1	1	4	14	17	train	id-1370_AU2-33_AU27i-66	valence	0.766320027008225		2.3272101549664503
id-1370_AU2-33_AU27i-66	1	1	4	14	17	train	id-1370_AU2-33_AU27i-66	arousal	0.165764261161354		2.3272101549664503
id-1269_AU10Open-66_AU20-66_AU26-66_AU43-66	1	1	4	14	18	test	id-1269_AU10Open-66_AU20-66_AU26-66_AU43-66	valence	0.252722562098457		0.9435997466825942
id-1269_AU10Open-66_AU20-66_AU26-66_AU43-66	1	1	4	14	18	test	id-1269_AU10Open-66_AU20-66_AU26-66_AU43-66	arousal	-0.66033959774113		0.9435997466825942
id-1297_AU10Open-100_AU13-100_AU16Open-100_AU22-66_AU25-100	1	1	4	14	19	train	id-1297_AU10Open-100_AU13-100_AU16Open-100_AU22-66_AU25-100	valence	-0.21196085853418997		3.3274440944915096
id-1297_AU10Open-100_AU13-100_AU16Open-100_AU22-66_AU25-100	1	1	4	14	19	train	id-1297_AU10Open-100_AU13-100_AU16Open-100_AU22-66_AU25-100	arousal	0.152177026639931		3.3274440944915096
id-1335_AU43-66_AU5-66	1	1	4	14	20	test	id-1335_AU43-66_AU5-66	valence	0.323376181609854		1.88543121242401
id-1335_AU43-66_AU5-66	1	1	4	14	20	test	id-1335_AU43-66_AU5-66	arousal	-0.5924034251340179		1.88543121242401
id-1310_AU2-66	1	1	4	14	21	train	id-1310_AU2-66	valence	-0.29076681875844		0.901954285502143
id-1310_AU2-66	1	1	4	14	21	train	id-1310_AU2-66	arousal	-0.20380851782133602		0.901954285502143
id-1260_AU12-66_AU20-100_AU22-66_AU43-66	1	1	4	14	22	test_extra	id-1260_AU12-66_AU20-100_AU22-66_AU43-66	valence	0.317941287801285		1.8937953804961598
id-1260_AU12-66_AU20-100_AU22-66_AU43-66	1	1	4	14	22	test_extra	id-1260_AU12-66_AU20-100_AU22-66_AU43-66	arousal	0.154894473544216		1.8937953804961598
id-1380_AU1-66_AU14-100_AU17-66_AU9-33	1	1	4	14	23	train	id-1380_AU1-66_AU14-100_AU17-66_AU9-33	valence	-0.494575336579777		0.602006084238383
id-1380_AU1-66_AU14-100_AU17-66_AU9-33	1	1	4	14	23	train	id-1380_AU1-66_AU14-100_AU17-66_AU9-33	arousal	0.17119915496992302		0.602006084238383
id-1380_AU13-66_AU20-66_AU22-100_AU5-100	1	1	4	14	24	train	id-1380_AU13-66_AU20-66_AU22-100_AU5-100	valence	-0.35598554446126796		0.843809899837652
id-1380_AU13-66_AU20-66_AU22-100_AU5-100	1	1	4	14	24	train	id-1380_AU13-66_AU20-66_AU22-100_AU5-100	arousal	-0.1576119204485		0.843809899837652
id-1266_AU17-33_AU24-33_AU26-66	1	1	4	14	25	train	id-1266_AU17-33_AU24-33_AU26-66	valence	-0.051631491181405004		1.09372371953577
id-1266_AU17-33_AU24-33_AU26-66	1	1	4	14	25	train	id-1266_AU17-33_AU24-33_AU26-66	arousal	-0.48642299586692295		1.09372371953577
id-1373_AU1-33_AU15-100_AU4-66_AU7-66_AU9-66	1	1	4	14	26	test_extra	id-1373_AU1-33_AU15-100_AU4-66_AU7-66_AU9-66	valence	-0.051631491181405004		1.41856308609567
id-1373_AU1-33_AU15-100_AU4-66_AU7-66_AU9-66	1	1	4	14	26	test_extra	id-1373_AU1-33_AU15-100_AU4-66_AU7-66_AU9-66	arousal	-0.36957277898269		1.41856308609567
id-1370_AU26-100_AU4-33_AU6-33	1	1	4	14	27	test_extra	id-1370_AU26-100_AU4-33_AU6-33	valence	-0.027174469042845		0.8770914948036079
id-1370_AU26-100_AU4-33_AU6-33	1	1	4	14	27	test_extra	id-1370_AU26-100_AU4-33_AU6-33	arousal	-0.34511575684413		0.8770914948036079
id-1293_AU22-100_AU24-33	1	1	4	14	28	test_extra	id-1293_AU22-100_AU24-33	valence	-0.051631491181405004		0.9688069567273492
id-1293_AU22-100_AU24-33	1	1	4	14	28	test_extra	id-1293_AU22-100_AU24-33	arousal	-0.201091070917052		0.9688069567273492
id-1274_AU11-66_AU12-66_AU24-66_AU27i-100_AU7-100	1	1	4	14	29	test_extra	id-1274_AU11-66_AU12-66_AU24-66_AU27i-100_AU7-100	valence	0.733710664156811		1.57699447781852
id-1274_AU11-66_AU12-66_AU24-66_AU27i-100_AU7-100	1	1	4	14	29	test_extra	id-1274_AU11-66_AU12-66_AU24-66_AU27i-100_AU7-100	arousal	0.21467830543847402		1.57699447781852
id-1309_AU1-66_AU2-66_AU9-33	1	1	4	14	30	train	id-1309_AU1-66_AU2-66_AU9-33	valence	-0.5924034251340179		1.99384512660254
id-1309_AU1-66_AU2-66_AU9-33	1	1	4	14	30	train	id-1309_AU1-66_AU2-66_AU9-33	arousal	0.160329367352785		1.99384512660254
id-1295_AU13-33_AU5-66	1	1	4	14	31	train	id-1295_AU13-33_AU5-66	valence	-0.076088513319966		3.31901563078281
id-1295_AU13-33_AU5-66	1	1	4	14	31	train	id-1295_AU13-33_AU5-66	arousal	0.100545535458526		3.31901563078281
id-1309_AU11-66_AU24-66	1	1	4	14	32	test	id-1309_AU11-66_AU24-66	valence	-0.5407719339526129		1.3854203455521201
id-1309_AU11-66_AU24-66	1	1	4	14	32	test	id-1309_AU11-66_AU24-66	arousal	0.057066384989974		1.3854203455521201
id-1296_AU1-66_AU11-33	1	1	4	14	33	test_extra	id-1296_AU1-66_AU11-33	valence	-0.1576119204485		0.7936384749918941
id-1296_AU1-66_AU11-33	1	1	4	14	33	test_extra	id-1296_AU1-66_AU11-33	arousal	0.07880596022425		0.7936384749918941
id-1296_AU15-66_AU24-66	1	1	4	14	34	train	id-1296_AU15-66_AU24-66	valence	-0.035326809755698		1.26040276235653
id-1296_AU15-66_AU24-66	1	1	4	14	34	train	id-1296_AU15-66_AU24-66	arousal	-0.019022128329991003		1.26040276235653
id-1344_AU13-100_AU17-100_AU9-66	1	1	4	14	35	test_extra	id-1344_AU13-100_AU17-100_AU9-66	valence	-0.8831702438924581		0.885386839378043
id-1344_AU13-100_AU17-100_AU9-66	1	1	4	14	35	test_extra	id-1344_AU13-100_AU17-100_AU9-66	arousal	0.467400867536932		0.885386839378043
id-1366_AU16Open-100_AU43-100	1	1	4	14	36	test_extra	id-1366_AU16Open-100_AU43-100	valence	0.032609362851414		1.31028078176314
id-1366_AU16Open-100_AU43-100	1	1	4	14	36	test_extra	id-1366_AU16Open-100_AU43-100	arousal	-0.407617035642673		1.31028078176314
id-1315_AU1-66_AU12-100	1	1	4	15	1	test_extra	id-1315_AU1-66_AU12-100	valence	0.47555320824978503		7.83629304562783
id-1315_AU1-66_AU12-100	1	1	4	15	1	test_extra	id-1315_AU1-66_AU12-100	arousal	0.125002557597086		7.83629304562783
id-1367_AU16Open-66_AU2-100_AU7-100	1	1	4	15	2	test_extra	id-1367_AU16Open-66_AU2-100_AU7-100	valence	0.10869787617138		0.7687726657204621
id-1367_AU16Open-66_AU2-100_AU7-100	1	1	4	15	2	test_extra	id-1367_AU16Open-66_AU2-100_AU7-100	arousal	-0.375007672791259		0.7687726657204621
id-1285_AU12-66_AU20-100	1	1	4	15	3	test_extra	id-1285_AU12-66_AU20-100	valence	-0.065218725702828		1.46037607816106
id-1285_AU12-66_AU20-100	1	1	4	15	3	test_extra	id-1285_AU12-66_AU20-100	arousal	-0.119567663788517		1.46037607816106
id-1315_AU1-66_AU20-66	1	1	4	15	4	test_extra	id-1315_AU1-66_AU20-66	valence	-0.07065361951139701		0.877037764177658
id-1315_AU1-66_AU20-66	1	1	4	15	4	test_extra	id-1315_AU1-66_AU20-66	arousal	0.21467830543847402		0.877037764177658
id-1380_AU22-66_AU7-33	1	1	4	15	5	train	id-1380_AU22-66_AU7-33	valence	0.059783831894259		0.918723976115871
id-1380_AU22-66_AU7-33	1	1	4	15	5	train	id-1380_AU22-66_AU7-33	arousal	0.144024685927078		0.918723976115871
id-1318_AU12-100_AU14-100_AU26-33_AU6-66	1	1	4	15	6	test_extra	id-1318_AU12-100_AU14-100_AU26-33_AU6-66	valence	-0.684796619879691		1.1028896209936598
id-1318_AU12-100_AU14-100_AU26-33_AU6-66	1	1	4	15	6	test_extra	id-1318_AU12-100_AU14-100_AU26-33_AU6-66	arousal	0.201091070917052		1.1028896209936598
id-1361_AU15-33_AU16Open-100_AU27i-100_AU6-33	1	1	4	15	7	train	id-1361_AU15-33_AU16Open-100_AU27i-100_AU6-33	valence	-0.5924034251340179		0.768633811294421
