	rep	session	run	block	trial	data_split	trial_type	rating_type	rating	rating_intensity	rating_RT
id-1376_AU12-33_AU17-100_AU22-100_AU26-100	1	1	1	1	1	test_extra	id-1376_AU12-33_AU17-100_AU22-100_AU26-100	emotion	Blij	0.8617115720761456	1.4114314571688735
id-1370_AU11-66_AU2-100_AU25-66_AU7-66	1	1	1	1	2	test_extra	id-1370_AU11-66_AU2-100_AU25-66_AU7-66	emotion	Walging	0.03833053874066247	2.2533580694034754
id-1376_AU10Open-100_AU11-100_AU16Open-66_AU22-33	1	1	1	1	3	test_extra	id-1376_AU10Open-100_AU11-100_AU16Open-66_AU22-33	emotion	Boos	0.1394819328655712	0.7530883613185324
id-1260_AU11-66_AU14-66_AU43-33	1	1	1	1	4	test_extra	id-1260_AU11-66_AU14-66_AU43-33	emotion	Verdrietig	0.08602870326659627	1.019703632018718
id-1335_AU20-33_AU22-100_AU4-100_AU7-66	1	1	1	1	5	test_extra	id-1335_AU20-33_AU22-100_AU4-100_AU7-66	emotion	Bang	0.30719266902998704	2.136357887384293
id-1354_AU1-66_AU10Open-100	1	1	1	1	6	test	id-1354_AU1-66_AU10Open-100	emotion	Walging	0.11611760080730055	1.2031648968363695
id-1341_AU27i-66_AU43-33	1	1	1	1	7	train	id-1341_AU27i-66_AU43-33	emotion	Geen van allen	0.0	0.9447000323889372
id-1280_AU12-100_AU14-33_AU27i-66_AU4-66	1	1	1	1	8	train	id-1280_AU12-100_AU14-33_AU27i-66_AU4-66	emotion	Bang	0.4360760502669629	1.5698402066382189
id-1362_AU11-66_AU13-100_AU15-100_AU9-100	1	1	1	1	9	train	id-1362_AU11-66_AU13-100_AU15-100_AU9-100	emotion	Boos	0.5876512691890875	1.594825710017176
id-1295_AU1-33_AU14-33_AU6-66	1	1	1	1	10	test_extra	id-1295_AU1-33_AU14-33_AU6-66	emotion	Verrassing	0.00870869114401962	1.728096518969778
id-1293_AU1-33_AU22-33_AU27i-100	1	1	1	1	11	test_extra	id-1293_AU1-33_AU22-33_AU27i-100	emotion	Verrassing	0.6877189322976563	1.344769640317736
id-1354_AU14-66_AU7-100	1	1	1	1	12	test_extra	id-1354_AU14-66_AU7-100	emotion	Blij	0.19873648620531145	2.9282214268655484
id-1366_AU10Open-66_AU12-33_AU6-100_AU7-33	1	1	1	1	13	train	id-1366_AU10Open-66_AU12-33_AU6-100_AU7-33	emotion	Blij	0.2721269196766853	1.0781564826083925
id-1342_AU17-100_AU2-100_AU20-33_AU26-33	1	1	1	1	14	train	id-1342_AU17-100_AU2-100_AU20-33_AU26-33	emotion	Verrassing	0.5937493736302978	1.1864010376589251
id-1297_AU11-100_AU12-66_AU4-33_AU6-33	1	1	1	1	15	train	id-1297_AU11-100_AU12-66_AU4-33_AU6-33	emotion	Walging	0.3695826919721146	1.3280184590807949
id-1370_AU10Open-100_AU12-100_AU24-66	1	1	1	1	16	test_extra	id-1370_AU10Open-100_AU12-100_AU24-66	emotion	Blij	0.5543433752838959	1.1529934578807115
id-1307_AU10Open-66_AU17-33_AU22-33_AU9-100	1	1	1	1	17	test	id-1307_AU10Open-66_AU17-33_AU22-33_AU9-100	emotion	Walging	0.4294949144533374	1.8198020973541127
id-1339_AU10Open-100_AU12-33_AU20-100_AU27i-33	1	1	1	1	18	test	id-1339_AU10Open-100_AU12-33_AU20-100_AU27i-33	emotion	Blij	0.8201746744506474	0.9281978821200028
id-1270_AU5-33_AU7-100	1	1	1	1	19	test_extra	id-1270_AU5-33_AU7-100	emotion	Geen van allen	0.0	4.8545849317852126
id-1294_AU13-66_AU15-33_AU24-100_AU4-66	1	1	1	1	20	test_extra	id-1294_AU13-66_AU15-33_AU24-100_AU4-66	emotion	Verdrietig	0.3777950301142278	1.1612416653861146
id-1285_AU16Open-33_AU5-33	1	1	1	1	21	test	id-1285_AU16Open-33_AU5-33	emotion	Verrassing	0.20857531818862807	2.2614647065765894
id-1289_AU14-33_AU25-100_AU27i-66_AU7-33	1	1	1	1	22	train	id-1289_AU14-33_AU25-100_AU27i-66_AU7-33	emotion	Verrassing	0.6745712919989639	1.053060198179992
id-1309_AU11-66_AU24-66	1	1	1	1	23	test	id-1309_AU11-66_AU24-66	emotion	Walging	0.010788257211744664	1.4280966095266194
id-1310_AU1-100_AU24-100_AU5-33	1	1	1	1	24	test_extra	id-1310_AU1-100_AU24-100_AU5-33	emotion	Verdrietig	0.04460839807293482	1.8530847088645717
id-1347_AU17-66_AU26-100_AU27i-100_AU9-33	1	1	1	1	25	train	id-1347_AU17-66_AU26-100_AU27i-100_AU9-33	emotion	Verrassing	0.7586099269709439	0.7529688264539799
id-1344_AU13-66_AU14-66_AU24-33_AU9-33	1	1	1	1	26	test	id-1344_AU13-66_AU14-66_AU24-33_AU9-33	emotion	Boos	0.1467016889913001	1.2612857061358227
id-1360_AU10Open-66_AU20-33	1	1	1	1	27	test_extra	id-1360_AU10Open-66_AU20-33	emotion	Bang	0.14597917869198282	0.9864644877311548
id-1306_AU17-100_AU5-66	1	1	1	1	28	test_extra	id-1306_AU17-100_AU5-66	emotion	Walging	0.031245758136421792	2.2785222713678195
id-1373_AU11-33_AU13-100_AU16Open-66_AU43-33	1	1	1	1	29	test	id-1373_AU11-33_AU13-100_AU16Open-66_AU43-33	emotion	Geen van allen	0.0	0.6278541590131681
id-1339_AU17-66_AU2-33_AU20-66_AU22-33	1	1	1	1	30	test_extra	id-1339_AU17-66_AU2-33_AU20-66_AU22-33	emotion	Verrassing	0.2356687103888257	1.3196784874371588
id-1294_AU16Open-100_AU20-33_AU43-33	1	1	1	1	31	train	id-1294_AU16Open-100_AU20-33_AU43-33	emotion	Geen van allen	0.0	6.103762903199821
id-1344_AU10Open-33_AU16Open-100	1	1	1	1	32	test_extra	id-1344_AU10Open-33_AU16Open-100	emotion	Boos	0.5228763750206226	1.1197247317331858
id-1361_AU7-66	1	1	1	1	33	test_extra	id-1361_AU7-66	emotion	Walging	0.0046498686084209435	2.2616044657738708
id-1361_AU10Open-33_AU11-100_AU13-66_AU2-100	1	1	1	1	34	test_extra	id-1361_AU10Open-33_AU11-100_AU13-66_AU2-100	emotion	Boos	0.1393013093633054	0.8696019519202309
id-1269_AU17-33	1	1	1	1	35	train	id-1269_AU17-33	emotion	Walging	0.04269679971614807	0.6613381082884189
id-1290_AU20-100_AU43-100	1	1	1	1	36	test_extra	id-1290_AU20-100_AU43-100	emotion	Walging	0.053370568881611326	1.1946875808407642
id-1290_AU11-33_AU5-66	1	1	1	2	1	test_extra	id-1290_AU11-33_AU5-66	valence	-0.7364281110610958		3.5023570403773188
id-1290_AU11-33_AU5-66	1	1	1	2	1	test_extra	id-1290_AU11-33_AU5-66	arousal	0.1684817080656382		3.5023570403773188
id-1274_AU22-66_AU24-100	1	1	1	2	2	test_extra	id-1274_AU22-66_AU24-100	valence	-0.3614204382698367		2.235546469027668
id-1274_AU22-66_AU24-100	1	1	1	2	2	test_extra	id-1274_AU22-66_AU24-100	arousal	-0.05163149118140525		2.235546469027668
id-1307_AU20-66_AU43-66	1	1	1	2	3	test_extra	id-1307_AU20-66_AU43-66	valence	-0.4510961861112248		1.7021399457444204
id-1307_AU20-66_AU43-66	1	1	1	2	3	test_extra	id-1307_AU20-66_AU43-66	arousal	0.0815234071285346		1.7021399457444204
id-1264_AU14-66_AU15-66_AU20-66_AU6-33	1	1	1	2	4	test_extra	id-1264_AU14-66_AU15-66_AU20-66_AU6-33	valence	-0.5299021463354749		2.2605669876697903
id-1264_AU14-66_AU15-66_AU20-66_AU6-33	1	1	1	2	4	test_extra	id-1264_AU14-66_AU15-66_AU20-66_AU6-33	arousal	0.2418527744813193		2.2605669876697903
id-1290_AU12-66_AU15-33_AU24-33	1	1	1	2	5	test_extra	id-1290_AU12-66_AU15-33_AU24-33	valence	-0.2744621373327332		4.235752938338918
id-1290_AU12-66_AU15-33_AU24-33	1	1	1	2	5	test_extra	id-1290_AU12-66_AU15-33_AU24-33	arousal	-0.21739575234275896		4.235752938338918
id-1380_AU10Open-33_AU13-33_AU16Open-100_AU22-33_AU43-66	1	1	1	2	6	test	id-1380_AU10Open-33_AU13-33_AU16Open-100_AU22-33_AU43-66	valence	-0.24457022138560386		5.910901247599669
id-1380_AU10Open-33_AU13-33_AU16Open-100_AU22-33_AU43-66	1	1	1	2	6	test	id-1380_AU10Open-33_AU13-33_AU16Open-100_AU22-33_AU43-66	arousal	0.2771795842370177		5.910901247599669
id-1380_AU2-33_AU25-100_AU7-33	1	1	1	2	7	test_extra	id-1380_AU2-33_AU25-100_AU7-33	valence	0.0		4.1940588153793215
id-1380_AU2-33_AU25-100_AU7-33	1	1	1	2	7	test_extra	id-1380_AU2-33_AU25-100_AU7-33	arousal	0.3940298011212506		4.1940588153793215
id-1291_AU10Open-66_AU22-66_AU27i-66_AU9-100	1	1	1	2	8	train	id-1291_AU10Open-66_AU22-66_AU27i-66_AU9-100	valence	-0.2907668187584401		2.9189656249727705
id-1291_AU10Open-66_AU22-66_AU27i-66_AU9-100	1	1	1	2	8	train	id-1291_AU10Open-66_AU22-66_AU27i-66_AU9-100	arousal	0.864148115562467		2.9189656249727705
id-1270_AU2-33_AU24-66_AU4-66	1	1	1	2	9	train	id-1270_AU2-33_AU24-66_AU4-66	valence	0.03260936285141384		4.760805604615598
id-1270_AU2-33_AU24-66_AU4-66	1	1	1	2	9	train	id-1270_AU2-33_AU24-66_AU4-66	arousal	-0.4157693763555265		4.760805604615598
id-1378_AU12-33_AU9-66	1	1	1	2	10	test_extra	id-1378_AU12-33_AU9-66	valence	0.2201131992470434		2.777299906636017
id-1378_AU12-33_AU9-66	1	1	1	2	10	test_extra	id-1378_AU12-33_AU9-66	arousal	0.2364178806727504		2.777299906636017
id-1347_AU22-100_AU6-100	1	1	1	2	11	train	id-1347_AU22-100_AU6-100	valence	-0.04891404427712077		2.877211130869
id-1347_AU22-100_AU6-100	1	1	1	2	11	train	id-1347_AU22-100_AU6-100	arousal	0.04619659737283628		2.877211130869
id-1366_AU20-100_AU22-66_AU4-100	1	1	1	2	12	train	id-1366_AU20-100_AU22-66_AU4-100	valence	-0.010869787617137949		4.519038191087475
id-1366_AU20-100_AU22-66_AU4-100	1	1	1	2	12	train	id-1366_AU20-100_AU22-66_AU4-100	arousal	0.38044256659982817		4.519038191087475
id-1315_AU5-33_AU6-66	1	1	1	2	13	test_extra	id-1315_AU5-33_AU6-66	valence	-0.03260936285141384		4.702529641477213
id-1315_AU5-33_AU6-66	1	1	1	2	13	test_extra	id-1315_AU5-33_AU6-66	arousal	0.30163660637557804		4.702529641477213
id-1264_AU22-100_AU26-33	1	1	1	2	14	test_extra	id-1264_AU22-100_AU26-33	valence	0.312506393992716		1.3937692753738702
id-1264_AU22-100_AU26-33	1	1	1	2	14	test_extra	id-1264_AU22-100_AU26-33	arousal	0.4972927834840611		1.3937692753738702
id-1270_AU10Open-33_AU16Open-33_AU22-100_AU7-66	1	1	1	2	15	train	id-1270_AU10Open-33_AU16Open-33_AU22-100_AU7-66	valence	-0.5815336375168803		1.2853312308079694
id-1270_AU10Open-33_AU16Open-33_AU22-100_AU7-66	1	1	1	2	15	train	id-1270_AU10Open-33_AU16Open-33_AU22-100_AU7-66	arousal	0.2418527744813193		1.2853312308079694
id-1280_AU1-66_AU10Open-33_AU43-100	1	1	1	2	16	train	id-1280_AU1-66_AU10Open-33_AU43-100	valence	-0.33968086303556083		1.1685936632638914
id-1280_AU1-66_AU10Open-33_AU43-100	1	1	1	2	16	train	id-1280_AU1-66_AU10Open-33_AU43-100	arousal	-0.30163660637557804		1.1685936632638914
id-1307_AU10Open-33_AU12-100_AU17-33	1	1	1	2	17	test_extra	id-1307_AU10Open-33_AU12-100_AU17-33	valence	0.33424596922699185		0.9271453112301059
id-1307_AU10Open-33_AU12-100_AU17-33	1	1	1	2	17	test_extra	id-1307_AU10Open-33_AU12-100_AU17-33	arousal	-0.05978383189425871		0.9271453112301059
id-1342_AU10Open-66_AU25-66_AU26-33_AU5-100	1	1	1	2	18	test_extra	id-1342_AU10Open-66_AU25-66_AU26-33_AU5-100	valence	-0.7282757703482424		4.685733785593584
id-1342_AU10Open-66_AU25-66_AU26-33_AU5-100	1	1	1	2	18	test_extra	id-1342_AU10Open-66_AU25-66_AU26-33_AU5-100	arousal	0.3097889470884315		4.685733785593584
id-1269_AU17-33_AU24-33_AU6-66	1	1	1	2	19	train	id-1269_AU17-33_AU24-33_AU6-66	valence	-0.03804425665998282		1.5102104206025615
id-1269_AU17-33_AU24-33_AU6-66	1	1	1	2	19	train	id-1269_AU17-33_AU24-33_AU6-66	arousal	-0.5842510844211647		1.5102104206025615
id-1311_AU24-66	1	1	1	2	20	test_extra	id-1311_AU24-66	valence	0.2608749028113107		1.1187322301316271
id-1311_AU24-66	1	1	1	2	20	test_extra	id-1311_AU24-66	arousal	-0.7418630048696649		1.1187322301316271
id-1356_AU15-100	1	1	1	2	21	test_extra	id-1356_AU15-100	valence	0.13315489830993985		0.8436405490028847
id-1356_AU15-100	1	1	1	2	21	test_extra	id-1356_AU15-100	arousal	-0.8152340712853461		0.8436405490028847
id-1306_AU24-66_AU43-100_AU7-100	1	1	1	2	22	test	id-1306_AU24-66_AU43-100_AU7-100	valence	0.4565310799197938		1.9355326742215768
id-1306_AU24-66_AU43-100_AU7-100	1	1	1	2	22	test	id-1306_AU24-66_AU43-100_AU7-100	arousal	0.2717446904284487		1.9355326742215768
id-1373_AU10Open-100_AU17-66_AU24-33_AU43-100_AU9-66	1	1	1	2	23	test_extra	id-1373_AU10Open-100_AU17-66_AU24-33_AU43-100_AU9-66	valence	-0.2663097966198797		3.085644315558511
id-1373_AU10Open-100_AU17-66_AU24-33_AU43-100_AU9-66	1	1	1	2	23	test_extra	id-1373_AU10Open-100_AU17-66_AU24-33_AU43-100_AU9-66	arousal	0.6712093853582682		3.085644315558511
id-1273_AU10Open-66_AU12-66_AU25-66	1	1	1	2	24	train	id-1273_AU10Open-66_AU12-66_AU25-66	valence	0.5924034251340181		2.6689216295017104
id-1273_AU10Open-66_AU12-66_AU25-66	1	1	1	2	24	train	id-1273_AU10Open-66_AU12-66_AU25-66	arousal	0.4837055489626387		2.6689216295017104
id-1347_AU10Open-33	1	1	1	2	25	test_extra	id-1347_AU10Open-33	valence	-0.06793617260711217		5.294194016555593
id-1347_AU10Open-33	1	1	1	2	25	test_extra	id-1347_AU10Open-33	arousal	0.5299021463354749		5.294194016555593
id-1339_AU11-100_AU20-100_AU4-33	1	1	1	2	26	test_extra	id-1339_AU11-100_AU20-100_AU4-33	valence	-0.3695727789826902		4.994113813490912
id-1339_AU11-100_AU20-100_AU4-33	1	1	1	2	26	test_extra	id-1339_AU11-100_AU20-100_AU4-33	arousal	0.5815336375168803		4.994113813490912
id-1370_AU10Open-100_AU2-33_AU27i-66_AU5-66	1	1	1	2	27	test	id-1370_AU10Open-100_AU2-33_AU27i-66_AU5-66	valence	0.3967472480255351		2.3272200507053644
id-1370_AU10Open-100_AU2-33_AU27i-66_AU5-66	1	1	1	2	27	test	id-1370_AU10Open-100_AU2-33_AU27i-66_AU5-66	arousal	0.5326195932397594		2.3272200507053644
id-1290_AU10Open-33_AU14-66_AU24-66	1	1	1	2	28	test	id-1290_AU10Open-33_AU14-66_AU24-66	valence	0.010869787617137949		2.352126467886592
id-1290_AU10Open-33_AU14-66_AU24-66	1	1	1	2	28	test	id-1290_AU10Open-33_AU14-66_AU24-66	arousal	0.3423983099398454		2.352126467886592
id-1291_AU4-100_AU43-33_AU7-66	1	1	1	2	29	test	id-1291_AU4-100_AU43-33_AU7-66	valence	0.03804425665998282		3.0271953890933214
id-1291_AU4-100_AU43-33_AU7-66	1	1	1	2	29	test	id-1291_AU4-100_AU43-33_AU7-66	arousal	-0.3831600135041127		3.0271953890933214
id-1302_AU14-66_AU27i-33	1	1	1	2	30	train	id-1302_AU14-66_AU27i-33	valence	-0.312506393992716		3.70239139155774
id-1302_AU14-66_AU27i-33	1	1	1	2	30	train	id-1302_AU14-66_AU27i-33	arousal	0.5679464029954577		3.70239139155774
id-1310_AU12-33_AU14-33_AU22-100_AU6-100	1	1	1	2	31	test	id-1310_AU12-33_AU14-33_AU22-100_AU6-100	valence	-0.4619659737283627		7.002708551361137
id-1310_AU12-33_AU14-33_AU22-100_AU6-100	1	1	1	2	31	test	id-1310_AU12-33_AU14-33_AU22-100_AU6-100	arousal	0.6576221508368458		7.002708551361137
id-1376_AU1-100_AU13-33_AU14-33_AU27i-66	1	1	1	2	32	test	id-1376_AU1-100_AU13-33_AU14-33_AU27i-66	valence	0.3532680975569833		3.610573522846608
id-1376_AU1-100_AU13-33_AU14-33_AU27i-66	1	1	1	2	32	test	id-1376_AU1-100_AU13-33_AU14-33_AU27i-66	arousal	0.418486823259811		3.610573522846608
id-1289_AU2-100	1	1	1	2	33	test_extra	id-1289_AU2-100	valence	0.010869787617137949		0.9853904850847356
id-1289_AU2-100	1	1	1	2	33	test_extra	id-1289_AU2-100	arousal	0.03532680975569833		0.9853904850847356
id-1260_AU10Open-100_AU5-66	1	1	1	2	34	test_extra	id-1260_AU10Open-100_AU5-66	valence	-0.14945957973564675		1.4187481379276503
id-1260_AU10Open-100_AU5-66	1	1	1	2	34	test_extra	id-1260_AU10Open-100_AU5-66	arousal	0.010869787617137949		1.4187481379276503
id-1373_AU1-100_AU13-33_AU27i-33_AU6-33	1	1	1	2	35	train	id-1373_AU1-100_AU13-33_AU27i-33_AU6-33	valence	-0.1820689425870606		0.8603259256933597
id-1373_AU1-100_AU13-33_AU27i-33_AU6-33	1	1	1	2	35	train	id-1373_AU1-100_AU13-33_AU27i-33_AU6-33	arousal	0.03804425665998282		0.8603259256933597
id-1274_AU10Open-100_AU12-66_AU24-33_AU7-66	1	1	1	2	36	train	id-1274_AU10Open-100_AU12-66_AU24-33_AU7-66	valence	-0.7472978986782339		2.5438507311400818
id-1274_AU10Open-100_AU12-66_AU24-33_AU7-66	1	1	1	2	36	train	id-1274_AU10Open-100_AU12-66_AU24-33_AU7-66	arousal	0.30707150018414703		2.5438507311400818
id-1356_AU1-33_AU12-33_AU24-33_AU6-100	1	1	1	3	1	train	id-1356_AU1-33_AU12-33_AU24-33_AU6-100	valence	0.6358825756025699		4.777657907518004
id-1356_AU1-33_AU12-33_AU24-33_AU6-100	1	1	1	3	1	train	id-1356_AU1-33_AU12-33_AU24-33_AU6-100	arousal	-0.3206587347055695		4.777657907518004
id-1294_AU11-100_AU2-100_AU24-33	1	1	1	3	2	test_extra	id-1294_AU11-100_AU2-100_AU24-33	valence	0.11141532307566396		2.143871679926633
id-1294_AU11-100_AU2-100_AU24-33	1	1	1	3	2	test_extra	id-1294_AU11-100_AU2-100_AU24-33	arousal	0.04619659737283628		2.143871679926633
id-1377_AU13-66_AU14-100_AU9-66	1	1	1	3	3	test_extra	id-1377_AU13-66_AU14-100_AU9-66	valence	0.23370043376846586		3.0773345294869614
id-1377_AU13-66_AU14-100_AU9-66	1	1	1	3	3	test_extra	id-1377_AU13-66_AU14-100_AU9-66	arousal	0.1820689425870606		3.0773345294869614
id-1270_AU22-66_AU26-100	1	1	1	3	4	test_extra	id-1270_AU22-66_AU26-100	valence	0.20380851782133647		4.194145146114806
id-1270_AU22-66_AU26-100	1	1	1	3	4	test_extra	id-1270_AU22-66_AU26-100	arousal	0.5896859782297337		4.194145146114806
id-1335_AU13-33_AU4-66_AU9-33	1	1	1	3	5	test_extra	id-1335_AU13-33_AU4-66_AU9-33	valence	-0.29348426566272456		5.269184062863133
id-1335_AU13-33_AU4-66_AU9-33	1	1	1	3	5	test_extra	id-1335_AU13-33_AU4-66_AU9-33	arousal	0.3451157568441299		5.269184062863133
id-1293_AU22-100_AU24-33	1	1	1	3	6	train	id-1293_AU22-100_AU24-33	valence	-0.5706638498997423		7.111187648305076
id-1293_AU22-100_AU24-33	1	1	1	3	6	train	id-1293_AU22-100_AU24-33	arousal	0.28533192494987114		7.111187648305076
id-1266_AU25-100_AU4-100	1	1	1	3	7	test_extra	id-1266_AU25-100_AU4-100	valence	-0.13858979211850886		4.644158895642704
id-1266_AU25-100_AU4-100	1	1	1	3	7	test_extra	id-1266_AU25-100_AU4-100	arousal	0.4891404427712077		4.644158895642704
id-1297_AU11-100_AU24-33	1	1	1	3	8	test	id-1297_AU11-100_AU24-33	valence	-0.00815234071285346		2.9273369896109216
id-1297_AU11-100_AU24-33	1	1	1	3	8	test	id-1297_AU11-100_AU24-33	arousal	-0.6576221508368458		2.9273369896109216
id-1269_AU15-66_AU16Open-66_AU26-33_AU27i-100	1	1	1	3	9	test	id-1269_AU15-66_AU16Open-66_AU26-33_AU27i-100	valence	-0.1847863894913451		5.710930889831163
id-1269_AU15-66_AU16Open-66_AU26-33_AU27i-100	1	1	1	3	9	test	id-1269_AU15-66_AU16Open-66_AU26-33_AU27i-100	arousal	0.1277200045013709		5.710930889831163
id-1297_AU1-66_AU11-66	1	1	1	3	10	test_extra	id-1297_AU1-66_AU11-66	valence	-0.010869787617137949		9.2532053304094
id-1297_AU1-66_AU11-66	1	1	1	3	10	test_extra	id-1297_AU1-66_AU11-66	arousal	0.19565617710848307		9.2532053304094
id-1378_AU11-66_AU27i-33_AU4-100	1	1	1	3	11	train	id-1378_AU11-66_AU27i-33_AU4-100	valence	-0.31522384089700045		3.202367092172608
id-1378_AU11-66_AU27i-33_AU4-100	1	1	1	3	11	train	id-1378_AU11-66_AU27i-33_AU4-100	arousal	0.4809881020583541		3.202367092172608
id-1291_AU20-33_AU24-100_AU25-33_AU27i-100	1	1	1	3	12	test	id-1291_AU20-33_AU24-100_AU25-33_AU27i-100	valence	-0.3722902258869748		1.7938243942285226
id-1291_AU20-33_AU24-100_AU25-33_AU27i-100	1	1	1	3	12	test	id-1291_AU20-33_AU24-100_AU25-33_AU27i-100	arousal	0.3831600135041127		1.7938243942285226
id-1335_AU11-100_AU16Open-100_AU5-33	1	1	1	3	13	test_extra	id-1335_AU11-100_AU16Open-100_AU5-33	valence	-0.2554400090027418		2.7939381938344923
id-1335_AU11-100_AU16Open-100_AU5-33	1	1	1	3	13	test_extra	id-1335_AU11-100_AU16Open-100_AU5-33	arousal	0.07065361951139666		2.7939381938344923
id-1341_AU10Open-66_AU11-33_AU25-33_AU9-100	1	1	1	3	14	train	id-1341_AU10Open-66_AU11-33_AU25-33_AU9-100	valence	-0.3097889470884315		4.185712504765888
id-1341_AU10Open-66_AU11-33_AU25-33_AU9-100	1	1	1	3	14	train	id-1341_AU10Open-66_AU11-33_AU25-33_AU9-100	arousal	0.3478332037484143		4.185712504765888
id-1373_AU22-66_AU4-100	1	1	1	3	15	train	id-1373_AU22-66_AU4-100	valence	-0.00815234071285346		3.9858345148468284
id-1373_AU22-66_AU4-100	1	1	1	3	15	train	id-1373_AU22-66_AU4-100	arousal	0.28261447804558665		3.9858345148468284
id-1367_AU25-66_AU4-66_AU6-33	1	1	1	3	16	test	id-1367_AU25-66_AU4-66_AU6-33	valence	-0.0054348938085689745		4.794201412020811
id-1367_AU25-66_AU4-66_AU6-33	1	1	1	3	16	test	id-1367_AU25-66_AU4-66_AU6-33	arousal	0.32337618160985393		4.794201412020811
id-1378_AU10Open-100_AU24-66_AU43-100	1	1	1	3	17	train	id-1378_AU10Open-100_AU24-66_AU43-100	valence	-0.3315285223227074		2.502175625090332
id-1378_AU10Open-100_AU24-66_AU43-100	1	1	1	3	17	train	id-1378_AU10Open-100_AU24-66_AU43-100	arousal	0.5625115091868887		2.502175625090332
id-1302_AU26-100	1	1	1	3	18	test_extra	id-1302_AU26-100	valence	-0.1277200045013709		7.319527559578091
id-1302_AU26-100	1	1	1	3	18	test_extra	id-1302_AU26-100	arousal	0.7065361951139666		7.319527559578091
id-1318_AU1-100_AU13-66_AU2-100	1	1	1	3	19	test_extra	id-1318_AU1-100_AU13-66_AU2-100	valence	-0.4429438453983714		1.7609776623748985
id-1318_AU1-100_AU13-66_AU2-100	1	1	1	3	19	test_extra	id-1318_AU1-100_AU13-66_AU2-100	arousal	-0.3206587347055695		1.7609776623748985
id-1345_AU17-66_AU25-66_AU6-100	1	1	1	3	20	test	id-1345_AU17-66_AU25-66_AU6-100	valence	-0.3478332037484143		6.119360995592617
id-1345_AU17-66_AU25-66_AU6-100	1	1	1	3	20	test	id-1345_AU17-66_AU25-66_AU6-100	arousal	0.0625012787985432		6.119360995592617
id-1356_AU2-33_AU24-100_AU7-100	1	1	1	3	21	train	id-1356_AU2-33_AU24-100_AU7-100	valence	0.0		1.1103219261049162
id-1356_AU2-33_AU24-100_AU7-100	1	1	1	3	21	train	id-1356_AU2-33_AU24-100_AU7-100	arousal	-0.6304476817940009		1.1103219261049162
id-1264_AU14-33_AU16Open-100_AU20-33	1	1	1	3	22	test_extra	id-1264_AU14-33_AU16Open-100_AU20-33	valence	0.5489242746654663		1.1519828449354463
id-1264_AU14-33_AU16Open-100_AU20-33	1	1	1	3	22	test_extra	id-1264_AU14-33_AU16Open-100_AU20-33	arousal	0.0625012787985432		1.1519828449354463
id-1363_AU1-33_AU15-100_AU2-66_AU22-66_AU5-100	1	1	1	3	23	test	id-1363_AU1-33_AU15-100_AU2-66_AU22-66_AU5-100	valence	0.09239319474567256		2.3271741686367022
id-1363_AU1-33_AU15-100_AU2-66_AU22-66_AU5-100	1	1	1	3	23	test	id-1363_AU1-33_AU15-100_AU2-66_AU22-66_AU5-100	arousal	-0.4945753365797766		2.3271741686367022
id-1294_AU13-100_AU2-66_AU6-33	1	1	1	3	24	train	id-1294_AU13-100_AU2-66_AU6-33	valence	0.05163149118140525		2.3606620420359827
id-1294_AU13-100_AU2-66_AU6-33	1	1	1	3	24	train	id-1294_AU13-100_AU2-66_AU6-33	arousal	0.10869787617137948		2.3606620420359827
id-1270_AU10Open-66_AU12-33_AU14-33	1	1	1	3	25	test_extra	id-1270_AU10Open-66_AU12-33_AU14-33	valence	0.5924034251340181		1.385316409691768
id-1270_AU10Open-66_AU12-33_AU14-33	1	1	1	3	25	test_extra	id-1270_AU10Open-66_AU12-33_AU14-33	arousal	0.08967574784138807		1.385316409691768
id-1260_AU1-100_AU16Open-100_AU2-33	1	1	1	3	26	test_extra	id-1260_AU1-100_AU16Open-100_AU2-33	valence	-0.00815234071285346		1.3936310254548516
id-1260_AU1-100_AU16Open-100_AU2-33	1	1	1	3	26	test_extra	id-1260_AU1-100_AU16Open-100_AU2-33	arousal	-0.7119710889225355		1.3936310254548516
id-1309_AU15-66_AU43-100	1	1	1	3	27	test_extra	id-1309_AU15-66_AU43-100	valence	-0.28533192494987114		2.310563350308712
id-1309_AU15-66_AU43-100	1	1	1	3	27	test_extra	id-1309_AU15-66_AU43-100	arousal	-0.7065361951139666		2.310563350308712
id-1366_AU14-33_AU25-33	1	1	1	3	28	test_extra	id-1366_AU14-33_AU25-33	valence	0.057066384989974225		1.3020953918403393
id-1366_AU14-33_AU25-33	1	1	1	3	28	test_extra	id-1366_AU14-33_AU25-33	arousal	-0.6087081065597252		1.3020953918403393
id-1260_AU13-33_AU4-66	1	1	1	3	29	train	id-1260_AU13-33_AU4-66	valence	-0.03532680975569833		5.235894810526588
id-1260_AU13-33_AU4-66	1	1	1	3	29	train	id-1260_AU13-33_AU4-66	arousal	0.44566129230265583		5.235894810526588
id-1354_AU11-100_AU15-100_AU4-66_AU9-66	1	1	1	3	30	test_extra	id-1354_AU11-100_AU15-100_AU4-66_AU9-66	valence	-0.720123429635389		0.8438322273841551
id-1354_AU11-100_AU15-100_AU4-66_AU9-66	1	1	1	3	30	test_extra	id-1354_AU11-100_AU15-100_AU4-66_AU9-66	arousal	0.4646834206326473		0.8438322273841551
id-1367_AU1-66_AU10Open-66_AU15-33_AU6-100	1	1	1	3	31	test_extra	id-1367_AU1-66_AU10Open-66_AU15-33_AU6-100	valence	-0.0027174469042844872		3.0190718479998395
id-1367_AU1-66_AU10Open-66_AU15-33_AU6-100	1	1	1	3	31	test_extra	id-1367_AU1-66_AU10Open-66_AU15-33_AU6-100	arousal	-0.2717446904284487		3.0190718479998395
id-1355_AU13-66_AU14-100_AU15-100_AU7-33	1	1	1	3	32	test	id-1355_AU13-66_AU14-100_AU15-100_AU7-33	valence	-0.21739575234275896		0.8936574378308251
id-1355_AU13-66_AU14-100_AU15-100_AU7-33	1	1	1	3	32	test	id-1355_AU13-66_AU14-100_AU15-100_AU7-33	arousal	0.3994646949298196		0.8936574378308251
id-1344_AU1-33_AU10Open-100	1	1	1	3	33	train	id-1344_AU1-33_AU10Open-100	valence	-0.09782808855424154		3.1940334594987685
id-1344_AU1-33_AU10Open-100	1	1	1	3	33	train	id-1344_AU1-33_AU10Open-100	arousal	0.3260936285141384		3.1940334594987685
id-1307_AU1-100_AU13-100	1	1	1	3	34	train	id-1307_AU1-100_AU13-100	valence	-0.2717446904284487		2.118803166225007
id-1307_AU1-100_AU13-100	1	1	1	3	34	train	id-1307_AU1-100_AU13-100	arousal	-0.5679464029954577		2.118803166225007
id-1354_AU15-33_AU17-66_AU25-100_AU9-33	1	1	1	3	35	train	id-1354_AU15-33_AU17-66_AU25-100_AU9-33	valence	-0.5190323587183371		4.110670569459671
id-1354_AU15-33_AU17-66_AU25-100_AU9-33	1	1	1	3	35	train	id-1354_AU15-33_AU17-66_AU25-100_AU9-33	arousal	-0.6739268322625528		4.110670569459671
id-1285_AU11-33_AU20-66_AU4-66	1	1	1	3	36	test_extra	id-1285_AU11-33_AU20-66_AU4-66	valence	-0.07337106641568114		1.8270716886199807
id-1285_AU11-33_AU20-66_AU4-66	1	1	1	3	36	test_extra	id-1285_AU11-33_AU20-66_AU4-66	arousal	-0.5299021463354749		1.8270716886199807
id-1366_AU22-66_AU43-66	1	1	1	4	1	test_extra	id-1366_AU22-66_AU43-66	emotion	Blij	0.015594266193934522	5.603751885466409
id-1356_AU6-33	1	1	1	4	2	test	id-1356_AU6-33	emotion	Geen van allen	0.0	4.136673930321194
id-1344_AU2-33_AU20-100_AU24-100	1	1	1	4	3	test	id-1344_AU2-33_AU20-100_AU24-100	emotion	Bang	0.1959892108061881	1.5280929570722035
id-1356_AU12-33_AU43-33	1	1	1	4	4	train	id-1356_AU12-33_AU43-33	emotion	Blij	0.30668332527580405	1.6197641239045881
id-1285_AU1-66_AU12-100_AU14-66_AU16Open-33_AU24-66	1	1	1	4	5	train	id-1285_AU1-66_AU12-100_AU14-66_AU16Open-33_AU24-66	emotion	Blij	0.7305157124603108	1.0363684825201744
id-1318_AU10Open-33_AU11-33_AU16Open-100_AU26-66_AU7-66	1	1	1	4	6	train	id-1318_AU10Open-33_AU11-33_AU16Open-100_AU26-66_AU7-66	emotion	Verrassing	0.8344126849806021	6.953658808255567
id-1306_AU43-100_AU9-33	1	1	1	4	7	test_extra	id-1306_AU43-100_AU9-33	emotion	Walging	0.5162633581068152	1.1697419224165058
id-1342_AU22-33	1	1	1	4	8	test_extra	id-1342_AU22-33	emotion	Boos	0.42622357285227214	2.628286416402261
id-1289_AU10Open-66_AU15-66_AU43-100_AU7-100	1	1	1	4	9	test_extra	id-1289_AU10Open-66_AU15-66_AU43-100_AU7-100	emotion	Walging	0.5652184929845827	0.994573237894656
id-1339_AU12-33_AU14-100_AU16Open-33	1	1	1	4	10	train	id-1339_AU12-33_AU14-100_AU16Open-33	emotion	Blij	0.7515328667966225	1.069712370741854
id-1266_AU13-66_AU17-100_AU2-100_AU9-33	1	1	1	4	11	test	id-1266_AU13-66_AU17-100_AU2-100_AU9-33	emotion	Walging	0.046879729441056416	2.4449386493347447
id-1341_AU1-33_AU15-33_AU2-66_AU4-33	1	1	1	4	12	test	id-1341_AU1-33_AU15-33_AU2-66_AU4-33	emotion	Verdrietig	0.05116692743179788	1.6613909330390015
id-1302_AU1-33_AU14-100_AU27i-100_AU9-100	1	1	1	4	13	test_extra	id-1302_AU1-33_AU14-100_AU27i-100_AU9-100	emotion	Verrassing	0.7691036883668225	0.9195783920808936
id-1302_AU14-100_AU17-33_AU26-66_AU9-33	1	1	1	4	14	test_extra	id-1302_AU14-100_AU17-33_AU26-66_AU9-33	emotion	Boos	0.5828054577544663	2.2454974446404776
id-1339_AU16Open-66_AU24-100_AU43-33_AU7-100	1	1	1	4	15	train	id-1339_AU16Open-66_AU24-100_AU43-33_AU7-100	emotion	Blij	0.31411007461775997	1.6031635686713344
id-1363_AU2-100_AU25-100_AU26-100_AU27i-66	1	1	1	4	16	test_extra	id-1363_AU2-100_AU25-100_AU26-100_AU27i-66	emotion	Verrassing	0.9394418811136812	0.9945877269688026
id-1307_AU11-66_AU20-33_AU7-100_AU9-66	1	1	1	4	17	test_extra	id-1307_AU11-66_AU20-33_AU7-100_AU9-66	emotion	Walging	0.5098977274566336	1.6615451813108848
id-1347_AU16Open-100_AU24-100_AU26-100_AU43-33_AU5-66	1	1	1	4	18	test_extra	id-1347_AU16Open-100_AU24-100_AU26-100_AU43-33_AU5-66	emotion	Geen van allen	0.0	4.911832774346749
id-1273_AU16Open-33_AU22-100_AU24-100_AU9-100	1	1	1	4	19	train	id-1273_AU16Open-33_AU22-100_AU24-100_AU9-100	emotion	Boos	0.27354482102947203	2.161553180487772
id-1279_AU12-100_AU15-100_AU26-100	1	1	1	4	20	train	id-1279_AU12-100_AU15-100_AU26-100	emotion	Blij	0.813916412393067	1.1030583719530114
id-1335_AU1-33_AU14-66_AU27i-66_AU7-100	1	1	1	4	21	test_extra	id-1335_AU1-33_AU14-66_AU27i-66_AU7-100	emotion	Verrassing	0.2162644154533784	1.7447794808144863
id-1269_AU13-33_AU15-100	1	1	1	4	22	train	id-1269_AU13-33_AU15-100	emotion	Walging	0.028381017750722437	0.9196215574488632
id-1279_AU22-33_AU26-33_AU4-33	1	1	1	4	23	test	id-1279_AU22-33_AU26-33_AU4-33	emotion	Verrassing	0.12015846310023436	1.202978953713682
id-1363_AU1-100_AU25-66_AU5-66	1	1	1	4	24	train	id-1363_AU1-100_AU25-66_AU5-66	emotion	Verrassing	0.5270617154819962	2.103276009926504
id-1342_AU12-100_AU20-100_AU6-66	1	1	1	4	25	train	id-1342_AU12-100_AU20-100_AU6-66	emotion	Boos	0.21640875187816988	1.2530492710034196
id-1323_AU25-33_AU26-66	1	1	1	4	26	test_extra	id-1323_AU25-33_AU26-66	emotion	Verrassing	0.15179226950463495	0.8862145813818643
id-1260_AU12-66_AU25-33	1	1	1	4	27	test	id-1260_AU12-66_AU25-33	emotion	Verdrietig	0.02057223934758416	1.2445961034654829
id-1355_AU12-100_AU26-33_AU5-66	1	1	1	4	28	test_extra	id-1355_AU12-100_AU26-33_AU5-66	emotion	Blij	0.14514219284319874	1.6612297420856517
id-1310_AU14-100_AU43-100_AU9-33	1	1	1	4	29	train	id-1310_AU14-100_AU43-100_AU9-33	emotion	Walging	0.062170582505696174	4.6367963328152655
id-1291_AU15-66_AU20-66_AU7-100	1	1	1	4	30	train	id-1291_AU15-66_AU20-66_AU7-100	emotion	Verdrietig	0.16231779055105755	0.8612770730619559
id-1295_AU11-33_AU12-100_AU13-100_AU20-33_AU9-66	1	1	1	4	31	test	id-1295_AU11-33_AU12-100_AU13-100_AU20-33_AU9-66	emotion	Boos	0.6809808960849839	1.0365674054387457
id-1373_AU12-66_AU15-66_AU16Open-33	1	1	1	4	32	test_extra	id-1373_AU12-66_AU15-66_AU16Open-33	emotion	Blij	0.005964897557300379	1.411252456728107
id-1285_AU12-66_AU20-100	1	1	1	4	33	test_extra	id-1285_AU12-66_AU20-100	emotion	Blij	0.4254347429365654	1.052940059604225
id-1307_AU16Open-33_AU2-100_AU5-33_AU6-66	1	1	1	4	34	test_extra	id-1307_AU16Open-33_AU2-100_AU5-33_AU6-66	emotion	Verrassing	0.5614182546412536	1.7290576275768217
id-1273_AU15-100_AU2-100	1	1	1	4	35	test_extra	id-1273_AU15-100_AU2-100	emotion	Verrassing	0.27231013203804816	0.8113102922839062
id-1274_AU16Open-33_AU27i-100_AU6-100	1	1	1	4	36	test_extra	id-1274_AU16Open-33_AU27i-100_AU6-100	emotion	Verrassing	0.566844075753126	0.819655999186125
id-1289_AU2-100	1	1	2	5	1	test_extra	id-1289_AU2-100	emotion	Verrassing	0.13559968105694628	1.6365216441117811
id-1264_AU14-66_AU15-66_AU20-66_AU6-33	1	1	2	5	2	test_extra	id-1264_AU14-66_AU15-66_AU20-66_AU6-33	emotion	Bang	0.2333637624298299	1.3530519575188011
id-1373_AU10Open-100_AU17-66_AU24-33_AU43-100_AU9-66	1	1	2	5	3	test_extra	id-1373_AU10Open-100_AU17-66_AU24-33_AU43-100_AU9-66	emotion	Walging	0.5626872008511651	1.7779205219931102
id-1339_AU11-100_AU20-100_AU4-33	1	1	2	5	4	test_extra	id-1339_AU11-100_AU20-100_AU4-33	emotion	Walging	0.3413523826258265	1.203052002797449
id-1302_AU14-66_AU27i-33	1	1	2	5	5	train	id-1302_AU14-66_AU27i-33	emotion	Verrassing	0.3231403126031534	1.5188015362045917
id-1274_AU22-66_AU24-100	1	1	2	5	6	test_extra	id-1274_AU22-66_AU24-100	emotion	Walging	0.03687899511516735	1.1114759205165683
id-1356_AU15-100	1	1	2	5	7	test_extra	id-1356_AU15-100	emotion	Verdrietig	0.05412299103212023	1.6365844301008112
id-1269_AU17-33_AU24-33_AU6-66	1	1	2	5	8	train	id-1269_AU17-33_AU24-33_AU6-66	emotion	Walging	0.0021677455173451468	2.853353662309928
id-1307_AU20-66_AU43-66	1	1	2	5	9	test_extra	id-1307_AU20-66_AU43-66	emotion	Bang	0.021909486063398043	1.4698411423905782
id-1380_AU2-33_AU25-100_AU7-33	1	1	2	5	10	test_extra	id-1380_AU2-33_AU25-100_AU7-33	emotion	Blij	0.010448087715791643	1.5198528996706957
id-1274_AU10Open-100_AU12-66_AU24-33_AU7-66	1	1	2	5	11	train	id-1274_AU10Open-100_AU12-66_AU24-33_AU7-66	emotion	Boos	0.18705172911397608	0.8196934292955121
id-1366_AU20-100_AU22-66_AU4-100	1	1	2	5	12	train	id-1366_AU20-100_AU22-66_AU4-100	emotion	Bang	0.16813239893886284	1.7364570168019782
id-1290_AU11-33_AU5-66	1	1	2	5	13	test_extra	id-1290_AU11-33_AU5-66	emotion	Verrassing	0.12495427257927755	5.061887666808616
id-1273_AU10Open-66_AU12-66_AU25-66	1	1	2	5	14	train	id-1273_AU10Open-66_AU12-66_AU25-66	emotion	Blij	0.5473884359520285	1.0447253580832694
id-1260_AU10Open-100_AU5-66	1	1	2	5	15	test_extra	id-1260_AU10Open-100_AU5-66	emotion	Walging	0.27718299436646626	0.8113767005415866
id-1280_AU1-66_AU10Open-33_AU43-100	1	1	2	5	16	train	id-1280_AU1-66_AU10Open-33_AU43-100	emotion	Walging	0.09279931648298913	1.378178427518833
id-1378_AU12-33_AU9-66	1	1	2	5	17	test_extra	id-1378_AU12-33_AU9-66	emotion	Blij	0.5661243257682917	2.1281187355507427
id-1311_AU24-66	1	1	2	5	18	test_extra	id-1311_AU24-66	emotion	Walging	0.0057318477524668215	3.369991194868817
id-1315_AU5-33_AU6-66	1	1	2	5	19	test_extra	id-1315_AU5-33_AU6-66	emotion	Boos	0.003265529378652099	3.053356922351668
id-1370_AU10Open-100_AU2-33_AU27i-66_AU5-66	1	1	2	5	20	test	id-1370_AU10Open-100_AU2-33_AU27i-66_AU5-66	emotion	Boos	0.007443257141639292	1.1114131345275382
id-1380_AU10Open-33_AU13-33_AU16Open-100_AU22-33_AU43-66	1	1	2	5	21	test	id-1380_AU10Open-33_AU13-33_AU16Open-100_AU22-33_AU43-66	emotion	Blij	0.13586558508701174	1.4031168414057902
id-1307_AU10Open-33_AU12-100_AU17-33	1	1	2	5	22	test_extra	id-1307_AU10Open-33_AU12-100_AU17-33	emotion	Blij	0.3920808084859901	1.34475515124268
id-1290_AU12-66_AU15-33_AU24-33	1	1	2	5	23	test_extra	id-1290_AU12-66_AU15-33_AU24-33	emotion	Walging	0.08306795232848425	0.5530977792168414
id-1270_AU2-33_AU24-66_AU4-66	1	1	2	5	24	train	id-1270_AU2-33_AU24-66_AU4-66	emotion	Walging	0.002673016430831029	1.3696869243040055
id-1264_AU22-100_AU26-33	1	1	2	5	25	test_extra	id-1264_AU22-100_AU26-33	emotion	Verrassing	0.4695011704239992	2.9199001702763776
id-1291_AU4-100_AU43-33_AU7-66	1	1	2	5	26	test	id-1291_AU4-100_AU43-33_AU7-66	emotion	Verdrietig	0.18135107165608008	3.1201494427295984
id-1270_AU10Open-33_AU16Open-33_AU22-100_AU7-66	1	1	2	5	27	train	id-1270_AU10Open-33_AU16Open-33_AU22-100_AU7-66	emotion	Boos	0.20783798483952784	1.2115051703358404
id-1291_AU10Open-66_AU22-66_AU27i-66_AU9-100	1	1	2	5	28	train	id-1291_AU10Open-66_AU22-66_AU27i-66_AU9-100	emotion	Verrassing	0.8978551742338604	1.0365858186369223
id-1306_AU24-66_AU43-100_AU7-100	1	1	2	5	29	test	id-1306_AU24-66_AU43-100_AU7-100	emotion	Geen van allen	0.0	1.828130900335964
id-1373_AU1-100_AU13-33_AU27i-33_AU6-33	1	1	2	5	30	train	id-1373_AU1-100_AU13-33_AU27i-33_AU6-33	emotion	Verrassing	0.2157390964844413	3.3866871365089537
id-1376_AU1-100_AU13-33_AU14-33_AU27i-66	1	1	2	5	31	test	id-1376_AU1-100_AU13-33_AU14-33_AU27i-66	emotion	Verrassing	0.6888945418566407	1.86154391351738
id-1310_AU12-33_AU14-33_AU22-100_AU6-100	1	1	2	5	32	test	id-1310_AU12-33_AU14-33_AU22-100_AU6-100	emotion	Blij	0.1725761029697234	2.5116786468170176
id-1290_AU10Open-33_AU14-66_AU24-66	1	1	2	5	33	test	id-1290_AU10Open-33_AU14-66_AU24-66	emotion	Blij	0.03751993011626517	4.5034084038443325
id-1342_AU10Open-66_AU25-66_AU26-33_AU5-100	1	1	2	5	34	test_extra	id-1342_AU10Open-66_AU25-66_AU26-33_AU5-100	emotion	Boos	0.641102139121815	0.9862643573897004
id-1347_AU10Open-33	1	1	2	5	35	test_extra	id-1347_AU10Open-33	emotion	Walging	0.06287226985333212	1.4449495161406958
id-1347_AU22-100_AU6-100	1	1	2	5	36	train	id-1347_AU22-100_AU6-100	emotion	Walging	0.14833324370160436	2.1949314802614026
id-1318_AU10Open-66	1	1	2	6	1	train	id-1318_AU10Open-66	emotion	Walging	0.1118918922618799	2.1697081145757693
id-1273_AU12-100_AU16Open-33_AU20-100_AU22-66_AU5-66	1	1	2	6	2	test	id-1273_AU12-100_AU16Open-33_AU20-100_AU22-66_AU5-66	emotion	Blij	0.6845307722836184	1.0781356545639935
id-1323_AU26-33	1	1	2	6	3	train	id-1323_AU26-33	emotion	Verrassing	0.5726244346595021	1.5197433260455
id-1339_AU1-66_AU10Open-33_AU26-33	1	1	2	6	4	test_extra	id-1339_AU1-66_AU10Open-33_AU26-33	emotion	Verrassing	0.4777815307923426	1.0616673121348867
id-1373_AU1-33_AU15-100_AU4-66_AU7-66_AU9-66	1	1	2	6	5	test_extra	id-1373_AU1-33_AU15-100_AU4-66_AU7-66_AU9-66	emotion	Verdrietig	0.3537449122337562	0.9865450832085116
id-1311_AU1-66_AU11-66_AU12-66_AU17-100	1	1	2	6	6	test_extra	id-1311_AU1-66_AU11-66_AU12-66_AU17-100	emotion	Blij	0.4236411232211377	2.011445765130702
id-1297_AU14-66_AU16Open-33_AU25-100_AU26-100	1	1	2	6	7	test_extra	id-1297_AU14-66_AU16Open-33_AU25-100_AU26-100	emotion	Blij	0.6851209799810425	1.3697454843140804
id-1366_AU15-100_AU25-66_AU27i-100_AU43-33	1	1	2	6	8	test_extra	id-1366_AU15-100_AU25-66_AU27i-100_AU43-33	emotion	Geen van allen	0.0	0.7696394122149286
id-1269_AU14-100_AU20-100_AU5-66	1	1	2	6	9	train	id-1269_AU14-100_AU20-100_AU5-66	emotion	Blij	0.06424748571379417	3.211622290354172
id-1355_AU2-66_AU4-100_AU6-33	1	1	2	6	10	test_extra	id-1355_AU2-66_AU4-100_AU6-33	emotion	Bang	0.05042740959497779	3.7534520974595584
id-1323_AU22-66_AU7-100	1	1	2	6	11	test_extra	id-1323_AU22-66_AU7-100	emotion	Walging	0.01800479502842271	1.5446732879718184
id-1342_AU1-100_AU14-100_AU15-66_AU5-100_AU7-100	1	1	2	6	12	test	id-1342_AU1-100_AU14-100_AU15-66_AU5-100_AU7-100	emotion	Blij	0.100866943305424	1.3863354745972174
id-1311_AU15-66_AU16Open-100_AU17-66_AU20-100	1	1	2	6	13	test_extra	id-1311_AU15-66_AU16Open-100_AU17-66_AU20-100	emotion	Bang	0.2714621326270023	1.2363765722539029
id-1280_AU11-33_AU16Open-66_AU25-66_AU7-33	1	1	2	6	14	test_extra	id-1280_AU11-33_AU16Open-66_AU25-66_AU7-33	emotion	Boos	0.3134092106412576	1.0029017390206718
id-1296_AU22-66_AU24-66_AU25-66_AU5-66_AU6-100	1	1	2	6	15	test_extra	id-1296_AU22-66_AU24-66_AU25-66_AU5-66_AU6-100	emotion	Walging	0.04008810826542527	5.803819742631277
id-1280_AU15-100_AU26-66_AU43-66	1	1	2	6	16	test_extra	id-1280_AU15-100_AU26-66_AU43-66	emotion	Walging	0.04725594007599513	6.020291646957957
id-1307_AU16Open-66_AU17-66_AU43-33	1	1	2	6	17	test_extra	id-1307_AU16Open-66_AU17-66_AU43-33	emotion	Walging	0.061091934279106724	0.9536071909278688
id-1354_AU10Open-66_AU13-66_AU15-33_AU2-66	1	1	2	6	18	test_extra	id-1354_AU10Open-66_AU13-66_AU15-33_AU2-66	emotion	Bang	0.12946890289369453	1.1280453846111411
id-1360_AU1-100_AU11-66	1	1	2	6	19	test	id-1360_AU1-100_AU11-66	emotion	Walging	0.03436982349127723	1.028052659333298
id-1266_AU15-33_AU5-66_AU9-33	1	1	2	6	20	train	id-1266_AU15-33_AU5-66_AU9-33	emotion	Walging	0.0021677455173451468	1.7530747778118894
id-1310_AU20-33_AU24-33	1	1	2	6	21	train	id-1310_AU20-33_AU24-33	emotion	Verdrietig	0.03182893610539828	1.453093281567817
id-1347_AU13-100_AU14-66_AU17-100_AU27i-66_AU7-100	1	1	2	6	22	test	id-1347_AU13-100_AU14-66_AU17-100_AU27i-66_AU7-100	emotion	Geen van allen	0.0	4.00350605416952
id-1291_AU10Open-66_AU13-33_AU4-33_AU6-100	1	1	2	6	23	test_extra	id-1291_AU10Open-66_AU13-33_AU4-33_AU6-100	emotion	Boos	0.08577002846285131	1.7282915177638642
id-1367_AU11-33_AU13-33_AU14-66_AU5-33	1	1	2	6	24	train	id-1367_AU11-33_AU13-33_AU14-66_AU5-33	emotion	Blij	0.1345170318915306	1.4030504331485645
id-1376_AU16Open-100_AU43-66_AU5-33	1	1	2	6	25	test_extra	id-1376_AU16Open-100_AU43-66_AU5-33	emotion	Blij	0.01407136045781924	1.4280757814813114
id-1341_AU12-33_AU2-66_AU20-33_AU24-66_AU5-33	1	1	2	6	26	test_extra	id-1341_AU12-33_AU2-66_AU20-33_AU24-66_AU5-33	emotion	Blij	0.12448860321872406	2.094826766511688
id-1289_AU17-33_AU26-66	1	1	2	6	27	test	id-1289_AU17-33_AU26-66	emotion	Verrassing	0.049406439918129166	1.0446613646718106
id-1315_AU27i-66	1	1	2	6	28	test_extra	id-1315_AU27i-66	emotion	Verrassing	0.4700144478935132	0.9863361990510384
id-1358_AU2-66_AU22-33_AU7-66	1	1	2	6	29	test_extra	id-1358_AU2-66_AU22-33_AU7-66	emotion	Walging	0.09140098663264193	3.911795042382437
id-1335_AU12-100_AU20-100_AU5-33	1	1	2	6	30	test_extra	id-1335_AU12-100_AU20-100_AU5-33	emotion	Bang	0.11599317110191333	3.228264803532511
id-1270_AU14-66_AU15-100_AU43-33	1	1	2	6	31	train	id-1270_AU14-66_AU15-100_AU43-33	emotion	Verdrietig	0.05003351426047639	1.1696438193075664
id-1309_AU2-33_AU26-66_AU4-100_AU5-100	1	1	2	6	32	test_extra	id-1309_AU2-33_AU26-66_AU4-100_AU5-100	emotion	Verrassing	0.04410828167975781	1.1032017534189436
id-1279_AU1-33_AU10Open-33_AU24-33	1	1	2	6	33	test_extra	id-1279_AU1-33_AU10Open-33_AU24-33	emotion	Walging	0.00019160522742489586	4.6701619546483935
id-1362_AU5-33_AU6-66_AU7-33	1	1	2	6	34	test	id-1362_AU5-33_AU6-66_AU7-33	emotion	Walging	0.0021677455173451468	0.9863491788464672
id-1360_AU14-33_AU5-66	1	1	2	6	35	test_extra	id-1360_AU14-33_AU5-66	emotion	Blij	0.13737349172646218	0.7365677978514213
id-1302_AU15-66_AU24-100_AU25-100_AU43-33	1	1	2	6	36	test	id-1302_AU15-66_AU24-100_AU25-100_AU43-33	emotion	Verdrietig	0.09279931648298907	0.9613011913334047
id-1341_AU14-33_AU2-33	1	1	2	7	1	train	id-1341_AU14-33_AU2-33	valence	0.831538752711053		3.1440823752182037
id-1341_AU14-33_AU2-33	1	1	2	7	1	train	id-1341_AU14-33_AU2-33	arousal	-0.8261038589024841		3.1440823752182037
id-1366_AU14-33_AU2-100_AU26-100_AU27i-100	1	1	2	7	2	test	id-1366_AU14-33_AU2-100_AU26-100_AU27i-100	valence	0.6087081065597252		2.360608311718352
id-1366_AU14-33_AU2-100_AU26-100_AU27i-100	1	1	2	7	2	test	id-1366_AU14-33_AU2-100_AU26-100_AU27i-100	arousal	0.7717549208167943		2.360608311718352
id-1311_AU11-66_AU5-100_AU7-66	1	1	2	7	3	train	id-1311_AU11-66_AU5-100_AU7-66	valence	-0.0054348938085689745		2.5689207541199717
id-1311_AU11-66_AU5-100_AU7-66	1	1	2	7	3	train	id-1311_AU11-66_AU5-100_AU7-66	arousal	-0.4837055489626387		2.5689207541199717
id-1361_AU15-33_AU16Open-100_AU27i-100_AU6-33	1	1	2	7	4	test_extra	id-1361_AU15-33_AU16Open-100_AU27i-100_AU6-33	valence	0.11956766378851742		5.302731099983248
id-1361_AU15-33_AU16Open-100_AU27i-100_AU6-33	1	1	2	7	4	test_extra	id-1361_AU15-33_AU16Open-100_AU27i-100_AU6-33	arousal	0.5978383189425871		5.302731099983248
id-1290_AU2-100_AU20-33_AU24-33_AU25-66_AU6-66	1	1	2	7	5	train	id-1290_AU2-100_AU20-33_AU24-33_AU25-66_AU6-66	valence	-0.4619659737283627		1.452031956860992
id-1290_AU2-100_AU20-33_AU24-33_AU25-66_AU6-66	1	1	2	7	5	train	id-1290_AU2-100_AU20-33_AU24-33_AU25-66_AU6-66	arousal	0.2771795842370177		1.452031956860992
id-1297_AU13-66_AU7-33_AU9-33	1	1	2	7	6	test_extra	id-1297_AU13-66_AU7-33_AU9-33	valence	-0.8097991774767771		2.960534477809233
id-1297_AU13-66_AU7-33_AU9-33	1	1	2	7	6	test_extra	id-1297_AU13-66_AU7-33_AU9-33	arousal	0.33424596922699185		2.960534477809233
id-1306_AU11-33_AU16Open-66	1	1	2	7	7	test_extra	id-1306_AU11-33_AU16Open-66	valence	-0.0054348938085689745		1.9439867473265624
id-1306_AU11-33_AU16Open-66	1	1	2	7	7	test_extra	id-1306_AU11-33_AU16Open-66	arousal	-0.7826247084339323		1.9439867473265624
id-1270_AU11-100_AU15-100_AU20-66_AU7-66	1	1	2	7	8	test	id-1270_AU11-100_AU15-100_AU20-66_AU7-66	valence	-0.4891404427712077		2.6022465309988547
id-1270_AU11-100_AU15-100_AU20-66_AU7-66	1	1	2	7	8	test	id-1270_AU11-100_AU15-100_AU20-66_AU7-66	arousal	-0.1711991549699227		2.6022465309988547
id-1378_AU1-66_AU20-66_AU7-33	1	1	2	7	9	test	id-1378_AU1-66_AU20-66_AU7-33	valence	-0.0842408540328191		1.3687067987875707
id-1378_AU1-66_AU20-66_AU7-33	1	1	2	7	9	test	id-1378_AU1-66_AU20-66_AU7-33	arousal	0.1820689425870606		1.3687067987875707
id-1360_AU1-66_AU14-66_AU15-66	1	1	2	7	10	train	id-1360_AU1-66_AU14-66_AU15-66	valence	0.1657642611613537		2.8022585448561586
id-1360_AU1-66_AU14-66_AU15-66	1	1	2	7	10	train	id-1360_AU1-66_AU14-66_AU15-66	arousal	-0.4646834206326473		2.8022585448561586
id-1339_AU1-66_AU25-66_AU43-100	1	1	2	7	11	test_extra	id-1339_AU1-66_AU25-66_AU43-100	valence	0.6358825756025699		1.5687773726540402
id-1339_AU1-66_AU25-66_AU43-100	1	1	2	7	11	test_extra	id-1339_AU1-66_AU25-66_AU43-100	arousal	-0.6304476817940009		1.5687773726540402
id-1309_AU11-66_AU27i-33_AU7-66_AU9-33	1	1	2	7	12	train	id-1309_AU11-66_AU27i-33_AU7-66_AU9-33	valence	-0.09782808855424154		1.8359948455117767
id-1309_AU11-66_AU27i-33_AU7-66_AU9-33	1	1	2	7	12	train	id-1309_AU11-66_AU27i-33_AU7-66_AU9-33	arousal	-0.1250025575970864		1.8359948455117767
id-1297_AU2-66_AU22-66	1	1	2	7	13	test_extra	id-1297_AU2-66_AU22-66	valence	-0.0054348938085689745		1.3937191673257985
id-1297_AU2-66_AU22-66	1	1	2	7	13	test_extra	id-1297_AU2-66_AU22-66	arousal	-0.7771898146253633		1.3937191673257985
id-1280_AU11-100_AU26-100_AU27i-100_AU43-66	1	1	2	7	14	test_extra	id-1280_AU11-100_AU26-100_AU27i-100_AU43-66	valence	-0.8396910934239064		2.3938788489995204
id-1280_AU11-100_AU26-100_AU27i-100_AU43-66	1	1	2	7	14	test_extra	id-1280_AU11-100_AU26-100_AU27i-100_AU43-66	arousal	-0.4510961861112248		2.3938788489995204
id-1309_AU15-33	1	1	2	7	15	test	id-1309_AU15-33	valence	-0.05434893808568974		2.852288413479073
id-1309_AU15-33	1	1	2	7	15	test	id-1309_AU15-33	arousal	-0.915779606743872		2.852288413479073
id-1279_AU11-33_AU12-100_AU15-33_AU26-66_AU43-100	1	1	2	7	16	test_extra	id-1279_AU11-33_AU12-100_AU15-33_AU26-66_AU43-100	valence	0.8804527969881736		2.1271404211665867
id-1279_AU11-33_AU12-100_AU15-33_AU26-66_AU43-100	1	1	2	7	16	test_extra	id-1279_AU11-33_AU12-100_AU15-33_AU26-66_AU43-100	arousal	0.4945753365797766		2.1271404211665867
id-1296_AU1-66_AU17-100_AU27i-33_AU4-66_AU5-100	1	1	2	7	17	test	id-1296_AU1-66_AU17-100_AU27i-33_AU4-66_AU5-100	valence	-0.5978383189425871		1.518729392687419
id-1296_AU1-66_AU17-100_AU27i-33_AU4-66_AU5-100	1	1	2	7	17	test	id-1296_AU1-66_AU17-100_AU27i-33_AU4-66_AU5-100	arousal	0.5733812968040267		1.518729392687419
id-1306_AU1-66_AU27i-33	1	1	2	7	18	train	id-1306_AU1-66_AU27i-33	valence	-0.0815234071285346		4.76919206203911
id-1306_AU1-66_AU27i-33	1	1	2	7	18	train	id-1306_AU1-66_AU27i-33	arousal	0.6875140667839752		4.76919206203911
id-1360_AU1-100_AU17-100_AU2-66	1	1	2	7	19	test_extra	id-1360_AU1-100_AU17-100_AU2-66	valence	-0.13858979211850886		7.961229651528813
id-1360_AU1-100_AU17-100_AU2-66	1	1	2	7	19	test_extra	id-1360_AU1-100_AU17-100_AU2-66	arousal	0.42392171706838		7.961229651528813
id-1295_AU11-66_AU13-66_AU17-33_AU9-66	1	1	2	7	20	train	id-1295_AU11-66_AU13-66_AU17-33_AU9-66	valence	-0.8587132217538979		2.7857102106618186
id-1295_AU11-66_AU13-66_AU17-33_AU9-66	1	1	2	7	20	train	id-1295_AU11-66_AU13-66_AU17-33_AU9-66	arousal	-0.10869787617137948		2.7857102106618186
id-1345_AU11-100_AU20-66	1	1	2	7	21	test_extra	id-1345_AU11-100_AU20-66	valence	-0.1875038363956296		4.7442548555764015
id-1345_AU11-100_AU20-66	1	1	2	7	21	test_extra	id-1345_AU11-100_AU20-66	arousal	-0.08695830093710358		4.7442548555764015
id-1264_AU10Open-33_AU25-66_AU4-66	1	1	2	7	22	test	id-1264_AU10Open-33_AU25-66_AU4-66	valence	-0.36685533207840576		1.1020350810676969
id-1264_AU10Open-33_AU25-66_AU4-66	1	1	2	7	22	test	id-1264_AU10Open-33_AU25-66_AU4-66	arousal	-0.0625012787985432		1.1020350810676969
id-1360_AU24-66_AU26-33_AU5-100_AU7-33	1	1	2	7	23	test_extra	id-1360_AU24-66_AU26-33_AU5-100_AU7-33	valence	-0.07608851331996565		0.9020345377275588
id-1360_AU24-66_AU26-33_AU5-100_AU7-33	1	1	2	7	23	test_extra	id-1360_AU24-66_AU26-33_AU5-100_AU7-33	arousal	0.2472876682898883		0.9020345377275588
id-1315_AU15-33_AU17-100_AU22-100_AU24-66	1	1	2	7	24	test_extra	id-1315_AU15-33_AU17-100_AU22-100_AU24-66	valence	0.07608851331996565		0.6269878331022483
id-1315_AU15-33_AU17-100_AU22-100_AU24-66	1	1	2	7	24	test_extra	id-1315_AU15-33_AU17-100_AU22-100_AU24-66	arousal	-0.8532783279453289		0.6269878331022483
id-1335_AU1-33_AU14-66_AU2-33	1	1	2	7	25	train	id-1335_AU1-33_AU14-66_AU2-33	valence	0.4755532082497852		1.8521073000483737
id-1335_AU1-33_AU14-66_AU2-33	1	1	2	7	25	train	id-1335_AU1-33_AU14-66_AU2-33	arousal	-0.8424085403281909		1.8521073000483737
id-1270_AU1-100_AU11-33_AU24-33_AU6-33	1	1	2	7	26	test_extra	id-1270_AU1-100_AU11-33_AU24-33_AU6-33	valence	-0.11956766378851742		1.1687180278195228
id-1270_AU1-100_AU11-33_AU24-33_AU6-33	1	1	2	7	26	test_extra	id-1270_AU1-100_AU11-33_AU24-33_AU6-33	arousal	-0.6902315136882597		1.1687180278195228
id-1360_AU2-100_AU26-33	1	1	2	7	27	test_extra	id-1360_AU2-100_AU26-33	valence	0.13858979211850886		1.3103777090418591
id-1360_AU2-100_AU26-33	1	1	2	7	27	test_extra	id-1360_AU2-100_AU26-33	arousal	0.2663097966198797		1.3103777090418591
id-1266_AU20-100_AU22-100_AU24-100_AU25-66_AU6-66	1	1	2	7	28	test_extra	id-1266_AU20-100_AU22-100_AU24-100_AU25-66_AU6-66	valence	-0.17935149568277614		2.2021307391451046
id-1266_AU20-100_AU22-100_AU24-100_AU25-66_AU6-66	1	1	2	7	28	test_extra	id-1266_AU20-100_AU22-100_AU24-100_AU25-66_AU6-66	arousal	0.4483787392069404		2.2021307391451046
id-1341_AU24-66_AU4-66_AU9-66	1	1	2	7	29	test_extra	id-1341_AU24-66_AU4-66_AU9-66	valence	-0.4701183144412162		4.719381340668407
id-1341_AU24-66_AU4-66_AU9-66	1	1	2	7	29	test_extra	id-1341_AU24-66_AU4-66_AU9-66	arousal	0.3423983099398454		4.719381340668407
id-1280_AU11-33_AU17-66_AU2-66_AU26-66_AU9-66	1	1	2	7	30	test	id-1280_AU11-33_AU17-66_AU2-66_AU26-66_AU9-66	valence	-0.6983838544011131		0.9436697988221568
id-1280_AU11-33_AU17-66_AU2-66_AU26-66_AU9-66	1	1	2	7	30	test	id-1280_AU11-33_AU17-66_AU2-66_AU26-66_AU9-66	arousal	0.6331651286982856		0.9436697988221568
id-1291_AU15-100_AU22-66	1	1	2	7	31	train	id-1291_AU15-100_AU22-66	valence	-0.029891915947129363		1.327140058940131
id-1291_AU15-100_AU22-66	1	1	2	7	31	train	id-1291_AU15-100_AU22-66	arousal	-0.7989293898596391		1.327140058940131
id-1363_AU16Open-66_AU4-33_AU6-66_AU9-100	1	1	2	7	32	test_extra	id-1363_AU16Open-66_AU4-33_AU6-66_AU9-100	valence	-0.5054451241969146		2.4522468781333373
id-1363_AU16Open-66_AU4-33_AU6-66_AU9-100	1	1	2	7	32	test_extra	id-1363_AU16Open-66_AU4-33_AU6-66_AU9-100	arousal	0.20652596472562101		2.4522468781333373
id-1360_AU6-33_AU9-33	1	1	2	7	33	test_extra	id-1360_AU6-33_AU9-33	valence	-0.010869787617137949		1.5022390147914848
id-1360_AU6-33_AU9-33	1	1	2	7	33	test_extra	id-1360_AU6-33_AU9-33	arousal	-0.2663097966198797		1.5022390147914848
id-1318_AU12-100_AU14-100_AU26-33_AU6-66	1	1	2	7	34	test_extra	id-1318_AU12-100_AU14-100_AU26-33_AU6-66	valence	0.3315285223227074		4.935928407068786
id-1318_AU12-100_AU14-100_AU26-33_AU6-66	1	1	2	7	34	test_extra	id-1318_AU12-100_AU14-100_AU26-33_AU6-66	arousal	0.6576221508368458		4.935928407068786
id-1290_AU11-66_AU16Open-100_AU43-33_AU6-33	1	1	2	7	35	test_extra	id-1290_AU11-66_AU16Open-100_AU43-33_AU6-33	valence	-0.2798970311413021		3.5857347213459434
id-1290_AU11-66_AU16Open-100_AU43-33_AU6-33	1	1	2	7	35	test_extra	id-1290_AU11-66_AU16Open-100_AU43-33_AU6-33	arousal	-0.08967574784138807		3.5857347213459434
id-1342_AU12-66_AU14-100_AU27i-33_AU6-66	1	1	2	7	36	train	id-1342_AU12-66_AU14-100_AU27i-33_AU6-66	valence	-0.1277200045013709		2.9105438504293484
id-1342_AU12-66_AU14-100_AU27i-33_AU6-66	1	1	2	7	36	train	id-1342_AU12-66_AU14-100_AU27i-33_AU6-66	arousal	0.7092536420182511		2.9105438504293484
id-1311_AU1-66_AU11-66_AU12-66_AU17-100	1	1	2	8	1	test_extra	id-1311_AU1-66_AU11-66_AU12-66_AU17-100	valence	0.3532680975569833		4.035695042412954
id-1311_AU1-66_AU11-66_AU12-66_AU17-100	1	1	2	8	1	test_extra	id-1311_AU1-66_AU11-66_AU12-66_AU17-100	arousal	0.5896859782297337		4.035695042412954
id-1323_AU26-33	1	1	2	8	2	train	id-1323_AU26-33	valence	0.0		1.41870950039538
id-1323_AU26-33	1	1	2	8	2	train	id-1323_AU26-33	arousal	-0.7608851331996563		1.41870950039538
id-1296_AU22-66_AU24-66_AU25-66_AU5-66_AU6-100	1	1	2	8	3	test_extra	id-1296_AU22-66_AU24-66_AU25-66_AU5-66_AU6-100	valence	-0.21467830543847446		2.460601640706954
id-1296_AU22-66_AU24-66_AU25-66_AU5-66_AU6-100	1	1	2	8	3	test_extra	id-1296_AU22-66_AU24-66_AU25-66_AU5-66_AU6-100	arousal	-0.4972927834840611		2.460601640706954
id-1360_AU14-33_AU5-66	1	1	2	8	4	test_extra	id-1360_AU14-33_AU5-66	valence	0.1684817080656382		3.852505145885517
id-1360_AU14-33_AU5-66	1	1	2	8	4	test_extra	id-1360_AU14-33_AU5-66	arousal	-0.3179412878012849		3.852505145885517
id-1269_AU14-100_AU20-100_AU5-66	1	1	2	8	5	train	id-1269_AU14-100_AU20-100_AU5-66	valence	-0.19293873020419855		1.0687554881142205
id-1269_AU14-100_AU20-100_AU5-66	1	1	2	8	5	train	id-1269_AU14-100_AU20-100_AU5-66	arousal	-0.29620171256700906		1.0687554881142205
id-1376_AU16Open-100_AU43-66_AU5-33	1	1	2	8	6	test_extra	id-1376_AU16Open-100_AU43-66_AU5-33	valence	0.23098298686418134		2.4438238961665766
id-1376_AU16Open-100_AU43-66_AU5-33	1	1	2	8	6	test_extra	id-1376_AU16Open-100_AU43-66_AU5-33	arousal	-0.5978383189425871		2.4438238961665766
id-1362_AU5-33_AU6-66_AU7-33	1	1	2	8	7	test	id-1362_AU5-33_AU6-66_AU7-33	valence	0.0842408540328191		4.102505372277847
id-1362_AU5-33_AU6-66_AU7-33	1	1	2	8	7	test	id-1362_AU5-33_AU6-66_AU7-33	arousal	-0.8125166243810616		4.102505372277847
id-1360_AU1-100_AU11-66	1	1	2	8	8	test	id-1360_AU1-100_AU11-66	valence	-0.21196085853419		0.9520345226355856
id-1360_AU1-100_AU11-66	1	1	2	8	8	test	id-1360_AU1-100_AU11-66	arousal	-0.8342561996153375		0.9520345226355856
id-1273_AU12-100_AU16Open-33_AU20-100_AU22-66_AU5-66	1	1	2	8	9	test	id-1273_AU12-100_AU16Open-33_AU20-100_AU22-66_AU5-66	valence	0.3451157568441299		2.86080738556484
id-1273_AU12-100_AU16Open-33_AU20-100_AU22-66_AU5-66	1	1	2	8	9	test	id-1273_AU12-100_AU16Open-33_AU20-100_AU22-66_AU5-66	arousal	0.29348426566272456		2.86080738556484
id-1373_AU1-33_AU15-100_AU4-66_AU7-66_AU9-66	1	1	2	8	10	test_extra	id-1373_AU1-33_AU15-100_AU4-66_AU7-66_AU9-66	valence	-0.3614204382698367		1.3603945978693446
id-1373_AU1-33_AU15-100_AU4-66_AU7-66_AU9-66	1	1	2	8	10	test_extra	id-1373_AU1-33_AU15-100_AU4-66_AU7-66_AU9-66	arousal	0.2907668187584401		1.3603945978693446
id-1270_AU14-66_AU15-100_AU43-33	1	1	2	8	11	train	id-1270_AU14-66_AU15-100_AU43-33	valence	-0.17663404877849165		1.0604828302957685
id-1270_AU14-66_AU15-100_AU43-33	1	1	2	8	11	train	id-1270_AU14-66_AU15-100_AU43-33	arousal	-0.4755532082497852		1.0604828302957685
id-1339_AU1-66_AU10Open-33_AU26-33	1	1	2	8	12	test_extra	id-1339_AU1-66_AU10Open-33_AU26-33	valence	0.5788161906125957		2.8522355887289446
id-1339_AU1-66_AU10Open-33_AU26-33	1	1	2	8	12	test_extra	id-1339_AU1-66_AU10Open-33_AU26-33	arousal	0.6059906596554406		2.8522355887289446
id-1311_AU15-66_AU16Open-100_AU17-66_AU20-100	1	1	2	8	13	test_extra	id-1311_AU15-66_AU16Open-100_AU17-66_AU20-100	valence	-0.0625012787985432		1.3688900252072926
id-1311_AU15-66_AU16Open-100_AU17-66_AU20-100	1	1	2	8	13	test_extra	id-1311_AU15-66_AU16Open-100_AU17-66_AU20-100	arousal	0.4429438453983714		1.3688900252072926
id-1355_AU2-66_AU4-100_AU6-33	1	1	2	8	14	test_extra	id-1355_AU2-66_AU4-100_AU6-33	valence	-0.02173957523427589		1.2103765318042858
id-1355_AU2-66_AU4-100_AU6-33	1	1	2	8	14	test_extra	id-1355_AU2-66_AU4-100_AU6-33	arousal	0.29620171256700906		1.2103765318042858
id-1280_AU15-100_AU26-66_AU43-66	1	1	2	8	15	test_extra	id-1280_AU15-100_AU26-66_AU43-66	valence	-0.5163149118140525		0.7854430683510145
id-1280_AU15-100_AU26-66_AU43-66	1	1	2	8	15	test_extra	id-1280_AU15-100_AU26-66_AU43-66	arousal	0.21739575234275896		0.7854430683510145
id-1280_AU11-33_AU16Open-66_AU25-66_AU7-33	1	1	2	8	16	test_extra	id-1280_AU11-33_AU16Open-66_AU25-66_AU7-33	valence	-0.6549047039325613		2.077059237071808
id-1280_AU11-33_AU16Open-66_AU25-66_AU7-33	1	1	2	8	16	test_extra	id-1280_AU11-33_AU16Open-66_AU25-66_AU7-33	arousal	-0.2364178806727504		2.077059237071808
id-1266_AU15-33_AU5-66_AU9-33	1	1	2	8	17	train	id-1266_AU15-33_AU5-66_AU9-33	valence	-0.19837362401276756		5.936053979046847
id-1266_AU15-33_AU5-66_AU9-33	1	1	2	8	17	train	id-1266_AU15-33_AU5-66_AU9-33	arousal	0.2418527744813193		5.936053979046847
id-1289_AU17-33_AU26-66	1	1	2	8	18	test	id-1289_AU17-33_AU26-66	valence	-0.09782808855424154		3.7856691582846898
id-1289_AU17-33_AU26-66	1	1	2	8	18	test	id-1289_AU17-33_AU26-66	arousal	-0.05434893808568974		3.7856691582846898
id-1367_AU11-33_AU13-33_AU14-66_AU5-33	1	1	2	8	19	train	id-1367_AU11-33_AU13-33_AU14-66_AU5-33	valence	0.6141430003682941		0.9520432764511496
id-1367_AU11-33_AU13-33_AU14-66_AU5-33	1	1	2	8	19	train	id-1367_AU11-33_AU13-33_AU14-66_AU5-33	arousal	-0.2907668187584401		0.9520432764511496
id-1342_AU1-100_AU14-100_AU15-66_AU5-100_AU7-100	1	1	2	8	20	test	id-1342_AU1-100_AU14-100_AU15-66_AU5-100_AU7-100	valence	0.6005557658468715		1.268847493736757
id-1342_AU1-100_AU14-100_AU15-66_AU5-100_AU7-100	1	1	2	8	20	test	id-1342_AU1-100_AU14-100_AU15-66_AU5-100_AU7-100	arousal	0.2201131992470434		1.268847493736757
id-1366_AU15-100_AU25-66_AU27i-100_AU43-33	1	1	2	8	21	test_extra	id-1366_AU15-100_AU25-66_AU27i-100_AU43-33	valence	-0.7608851331996563		3.95226634782648
id-1366_AU15-100_AU25-66_AU27i-100_AU43-33	1	1	2	8	21	test_extra	id-1366_AU15-100_AU25-66_AU27i-100_AU43-33	arousal	-0.3451157568441299		3.95226634782648
id-1323_AU22-66_AU7-100	1	1	2	8	22	test_extra	id-1323_AU22-66_AU7-100	valence	-0.12228511069280193		3.1939854644397205
id-1323_AU22-66_AU7-100	1	1	2	8	22	test_extra	id-1323_AU22-66_AU7-100	arousal	-0.915779606743872		3.1939854644397205
id-1358_AU2-66_AU22-33_AU7-66	1	1	2	8	23	test_extra	id-1358_AU2-66_AU22-33_AU7-66	valence	-0.010869787617137949		3.29397336002512
id-1358_AU2-66_AU22-33_AU7-66	1	1	2	8	23	test_extra	id-1358_AU2-66_AU22-33_AU7-66	arousal	-0.8342561996153375		3.29397336002512
id-1307_AU16Open-66_AU17-66_AU43-33	1	1	2	8	24	test_extra	id-1307_AU16Open-66_AU17-66_AU43-33	valence	0.2554400090027418		1.151983448648025
id-1307_AU16Open-66_AU17-66_AU43-33	1	1	2	8	24	test_extra	id-1307_AU16Open-66_AU17-66_AU43-33	arousal	-0.8886051377010272		1.151983448648025
id-1279_AU1-33_AU10Open-33_AU24-33	1	1	2	8	25	test_extra	id-1279_AU1-33_AU10Open-33_AU24-33	valence	-0.02173957523427589		1.4020989839227695
id-1279_AU1-33_AU10Open-33_AU24-33	1	1	2	8	25	test_extra	id-1279_AU1-33_AU10Open-33_AU24-33	arousal	-0.6549047039325613		1.4020989839227695
id-1341_AU12-33_AU2-66_AU20-33_AU24-66_AU5-33	1	1	2	8	26	test_extra	id-1341_AU12-33_AU2-66_AU20-33_AU24-66_AU5-33	valence	0.19293873020419855		4.069041345479492
id-1341_AU12-33_AU2-66_AU20-33_AU24-66_AU5-33	1	1	2	8	26	test_extra	id-1341_AU12-33_AU2-66_AU20-33_AU24-66_AU5-33	arousal	0.1847863894913451		4.069041345479492
id-1335_AU12-100_AU20-100_AU5-33	1	1	2	8	27	test_extra	id-1335_AU12-100_AU20-100_AU5-33	valence	0.5434893808568974		1.7020445593370823
id-1335_AU12-100_AU20-100_AU5-33	1	1	2	8	27	test_extra	id-1335_AU12-100_AU20-100_AU5-33	arousal	0.50272767729263		1.7020445593370823
id-1315_AU27i-66	1	1	2	8	28	test_extra	id-1315_AU27i-66	valence	0.08695830093710358		3.0105015604431173
id-1315_AU27i-66	1	1	2	8	28	test_extra	id-1315_AU27i-66	arousal	0.6467523632197079		3.0105015604431173
id-1302_AU15-66_AU24-100_AU25-100_AU43-33	1	1	2	8	29	test	id-1302_AU15-66_AU24-100_AU25-100_AU43-33	valence	-0.6195778941768629		1.2604175690894408
id-1302_AU15-66_AU24-100_AU25-100_AU43-33	1	1	2	8	29	test	id-1302_AU15-66_AU24-100_AU25-100_AU43-33	arousal	-0.13315489830993985		1.2604175690894408
id-1309_AU2-33_AU26-66_AU4-100_AU5-100	1	1	2	8	30	test_extra	id-1309_AU2-33_AU26-66_AU4-100_AU5-100	valence	0.0027174469042844872		0.935454795446276
id-1309_AU2-33_AU26-66_AU4-100_AU5-100	1	1	2	8	30	test_extra	id-1309_AU2-33_AU26-66_AU4-100_AU5-100	arousal	0.2472876682898883		0.935454795446276
id-1291_AU10Open-66_AU13-33_AU4-33_AU6-100	1	1	2	8	31	test_extra	id-1291_AU10Open-66_AU13-33_AU4-33_AU6-100	valence	-0.36685533207840576		1.3271868465762964
id-1291_AU10Open-66_AU13-33_AU4-33_AU6-100	1	1	2	8	31	test_extra	id-1291_AU10Open-66_AU13-33_AU4-33_AU6-100	arousal	0.2771795842370177		1.3271868465762964
id-1354_AU10Open-66_AU13-66_AU15-33_AU2-66	1	1	2	8	32	test_extra	id-1354_AU10Open-66_AU13-66_AU15-33_AU2-66	valence	-0.4565310799197938		1.3020416615227075
id-1354_AU10Open-66_AU13-66_AU15-33_AU2-66	1	1	2	8	32	test_extra	id-1354_AU10Open-66_AU13-66_AU15-33_AU2-66	arousal	0.5108800180054835		1.3020416615227075
id-1310_AU20-33_AU24-33	1	1	2	8	33	train	id-1310_AU20-33_AU24-33	valence	-0.2282655399598969		0.8769261790703241
id-1310_AU20-33_AU24-33	1	1	2	8	33	train	id-1310_AU20-33_AU24-33	arousal	-0.9456715226910016		0.8769261790703241
id-1347_AU13-100_AU14-66_AU17-100_AU27i-66_AU7-100	1	1	2	8	34	test	id-1347_AU13-100_AU14-66_AU17-100_AU27i-66_AU7-100	valence	0.29348426566272456		3.2939416651752254
id-1347_AU13-100_AU14-66_AU17-100_AU27i-66_AU7-100	1	1	2	8	34	test	id-1347_AU13-100_AU14-66_AU17-100_AU27i-66_AU7-100	arousal	0.30163660637557804		3.2939416651752254
id-1297_AU14-66_AU16Open-33_AU25-100_AU26-100	1	1	2	8	35	test_extra	id-1297_AU14-66_AU16Open-33_AU25-100_AU26-100	valence	0.7744723677210787		1.4105415865114992
id-1297_AU14-66_AU16Open-33_AU25-100_AU26-100	1	1	2	8	35	test_extra	id-1297_AU14-66_AU16Open-33_AU25-100_AU26-100	arousal	0.4782706551540697		1.4105415865114992
id-1318_AU10Open-66	1	1	2	8	36	train	id-1318_AU10Open-66	valence	-0.7690374739125099		1.86041618055242
id-1318_AU10Open-66	1	1	2	8	36	train	id-1318_AU10Open-66	arousal	-0.2282655399598969		1.86041618055242
id-1306_AU43-100_AU9-33	1	1	3	9	1	test_extra	id-1306_AU43-100_AU9-33	valence	-0.6875140667839752		2.9291212587622795
id-1306_AU43-100_AU9-33	1	1	3	9	1	test_extra	id-1306_AU43-100_AU9-33	arousal	0.5706638498997423		2.9291212587622795
id-1363_AU1-100_AU25-66_AU5-66	1	1	3	9	2	train	id-1363_AU1-100_AU25-66_AU5-66	valence	-0.2717446904284487		1.1520697793821455
id-1363_AU1-100_AU25-66_AU5-66	1	1	3	9	2	train	id-1363_AU1-100_AU25-66_AU5-66	arousal	0.30707150018414703		1.1520697793821455
id-1310_AU14-100_AU43-100_AU9-33	1	1	3	9	3	train	id-1310_AU14-100_AU43-100_AU9-33	valence	-0.5570766153783199		1.018638081332938
id-1310_AU14-100_AU43-100_AU9-33	1	1	3	9	3	train	id-1310_AU14-100_AU43-100_AU9-33	arousal	0.4375089515898024		1.018638081332938
id-1302_AU1-33_AU14-100_AU27i-100_AU9-100	1	1	3	9	4	test_extra	id-1302_AU1-33_AU14-100_AU27i-100_AU9-100	valence	0.30163660637557804		1.6354473396104368
id-1302_AU1-33_AU14-100_AU27i-100_AU9-100	1	1	3	9	4	test_extra	id-1302_AU1-33_AU14-100_AU27i-100_AU9-100	arousal	0.7527327924868029		1.6354473396104368
id-1347_AU16Open-100_AU24-100_AU26-100_AU43-33_AU5-66	1	1	3	9	5	test_extra	id-1347_AU16Open-100_AU24-100_AU26-100_AU43-33_AU5-66	valence	-0.7418630048696649		0.7438594245850254
id-1347_AU16Open-100_AU24-100_AU26-100_AU43-33_AU5-66	1	1	3	9	5	test_extra	id-1347_AU16Open-100_AU24-100_AU26-100_AU43-33_AU5-66	arousal	0.8913225846053117		0.7438594245850254
id-1356_AU6-33	1	1	3	9	6	test	id-1356_AU6-33	valence	-0.0054348938085689745		3.844093332580087
id-1356_AU6-33	1	1	3	9	6	test	id-1356_AU6-33	arousal	-0.4646834206326473		3.844093332580087
id-1285_AU1-66_AU12-100_AU14-66_AU16Open-33_AU24-66	1	1	3	9	7	train	id-1285_AU1-66_AU12-100_AU14-66_AU16Open-33_AU24-66	valence	0.2771795842370177		4.169047654264432
id-1285_AU1-66_AU12-100_AU14-66_AU16Open-33_AU24-66	1	1	3	9	7	train	id-1285_AU1-66_AU12-100_AU14-66_AU16Open-33_AU24-66	arousal	0.28533192494987114		4.169047654264432
id-1339_AU12-33_AU14-100_AU16Open-33	1	1	3	9	8	train	id-1339_AU12-33_AU14-100_AU16Open-33	valence	0.959258757212424		1.9615278849778408
id-1339_AU12-33_AU14-100_AU16Open-33	1	1	3	9	8	train	id-1339_AU12-33_AU14-100_AU16Open-33	arousal	0.09782808855424154		1.9615278849778408
id-1335_AU1-33_AU14-66_AU27i-66_AU7-100	1	1	3	9	9	test_extra	id-1335_AU1-33_AU14-66_AU27i-66_AU7-100	valence	0.5217498056226214		1.3352545443622148
id-1335_AU1-33_AU14-66_AU27i-66_AU7-100	1	1	3	9	9	test_extra	id-1335_AU1-33_AU14-66_AU27i-66_AU7-100	arousal	0.3858774604083972		1.3352545443622148
id-1307_AU11-66_AU20-33_AU7-100_AU9-66	1	1	3	9	10	test_extra	id-1307_AU11-66_AU20-33_AU7-100_AU9-66	valence	-0.6766442791668373		0.9519877349985107
id-1307_AU11-66_AU20-33_AU7-100_AU9-66	1	1	3	9	10	test_extra	id-1307_AU11-66_AU20-33_AU7-100_AU9-66	arousal	0.2500051151941728		0.9519877349985107
id-1260_AU12-66_AU25-33	1	1	3	9	11	test	id-1260_AU12-66_AU25-33	valence	0.07608851331996565		1.993764566424944
id-1260_AU12-66_AU25-33	1	1	3	9	11	test	id-1260_AU12-66_AU25-33	arousal	-0.6358825756025699		1.993764566424944
id-1355_AU12-100_AU26-33_AU5-66	1	1	3	9	12	test_extra	id-1355_AU12-100_AU26-33_AU5-66	valence	-0.0407617035642673		2.769043247170885
id-1355_AU12-100_AU26-33_AU5-66	1	1	3	9	12	test_extra	id-1355_AU12-100_AU26-33_AU5-66	arousal	0.24457022138560386		2.769043247170885
id-1373_AU12-66_AU15-66_AU16Open-33	1	1	3	9	13	test_extra	id-1373_AU12-66_AU15-66_AU16Open-33	valence	-0.05434893808568974		4.069170237871732
id-1373_AU12-66_AU15-66_AU16Open-33	1	1	3	9	13	test_extra	id-1373_AU12-66_AU15-66_AU16Open-33	arousal	-0.3423983099398454		4.069170237871732
id-1323_AU25-33_AU26-66	1	1	3	9	14	test_extra	id-1323_AU25-33_AU26-66	valence	-0.00815234071285346		1.143704753714701
id-1323_AU25-33_AU26-66	1	1	3	9	14	test_extra	id-1323_AU25-33_AU26-66	arousal	-0.3097889470884315		1.143704753714701
id-1344_AU2-33_AU20-100_AU24-100	1	1	3	9	15	test	id-1344_AU2-33_AU20-100_AU24-100	valence	-0.21196085853419		2.1687850397884176
id-1344_AU2-33_AU20-100_AU24-100	1	1	3	9	15	test	id-1344_AU2-33_AU20-100_AU24-100	arousal	0.1250025575970864		2.1687850397884176
id-1295_AU11-33_AU12-100_AU13-100_AU20-33_AU9-66	1	1	3	9	16	test	id-1295_AU11-33_AU12-100_AU13-100_AU20-33_AU9-66	valence	-0.7445804517739495		2.5271098129978777
id-1295_AU11-33_AU12-100_AU13-100_AU20-33_AU9-66	1	1	3	9	16	test	id-1295_AU11-33_AU12-100_AU13-100_AU20-33_AU9-66	arousal	0.4347915046855179		2.5271098129978777
id-1363_AU2-100_AU25-100_AU26-100_AU27i-66	1	1	3	9	17	test_extra	id-1363_AU2-100_AU25-100_AU26-100_AU27i-66	valence	0.4674008675369317		1.5853963410863798
id-1363_AU2-100_AU25-100_AU26-100_AU27i-66	1	1	3	9	17	test_extra	id-1363_AU2-100_AU25-100_AU26-100_AU27i-66	arousal	0.7472978986782339		1.5853963410863798
id-1291_AU15-66_AU20-66_AU7-100	1	1	3	9	18	train	id-1291_AU15-66_AU20-66_AU7-100	valence	-0.13587234521422434		2.202141907807345
id-1291_AU15-66_AU20-66_AU7-100	1	1	3	9	18	train	id-1291_AU15-66_AU20-66_AU7-100	arousal	0.5135974649097681		2.202141907807345
id-1285_AU12-66_AU20-100	1	1	3	9	19	test_extra	id-1285_AU12-66_AU20-100	valence	0.41305192945124203		1.0437090098803308
id-1285_AU12-66_AU20-100	1	1	3	9	19	test_extra	id-1285_AU12-66_AU20-100	arousal	0.2717446904284487		1.0437090098803308
id-1342_AU22-33	1	1	3	9	20	test_extra	id-1342_AU22-33	valence	-0.6739268322625528		2.152145545168424
id-1342_AU22-33	1	1	3	9	20	test_extra	id-1342_AU22-33	arousal	0.100545535458526		2.152145545168424
id-1318_AU10Open-33_AU11-33_AU16Open-100_AU26-66_AU7-66	1	1	3	9	21	train	id-1318_AU10Open-33_AU11-33_AU16Open-100_AU26-66_AU7-66	valence	-0.32337618160985393		1.9770728507646709
id-1318_AU10Open-33_AU11-33_AU16Open-100_AU26-66_AU7-66	1	1	3	9	21	train	id-1318_AU10Open-33_AU11-33_AU16Open-100_AU26-66_AU7-66	arousal	0.41305192945124203		1.9770728507646709
id-1273_AU15-100_AU2-100	1	1	3	9	22	test_extra	id-1273_AU15-100_AU2-100	valence	0.3695727789826902		1.0853660045859217
id-1273_AU15-100_AU2-100	1	1	3	9	22	test_extra	id-1273_AU15-100_AU2-100	arousal	-0.17391660187420716		1.0853660045859217
id-1341_AU1-33_AU15-33_AU2-66_AU4-33	1	1	3	9	23	test	id-1341_AU1-33_AU15-33_AU2-66_AU4-33	valence	0.09511064164995704		5.569264869638573
id-1341_AU1-33_AU15-33_AU2-66_AU4-33	1	1	3	9	23	test	id-1341_AU1-33_AU15-33_AU2-66_AU4-33	arousal	-0.20652596472562101		5.569264869638573
id-1266_AU13-66_AU17-100_AU2-100_AU9-33	1	1	3	9	24	test	id-1266_AU13-66_AU17-100_AU2-100_AU9-33	valence	-0.1711991549699227		2.560661981665362
id-1266_AU13-66_AU17-100_AU2-100_AU9-33	1	1	3	9	24	test	id-1266_AU13-66_AU17-100_AU2-100_AU9-33	arousal	0.29348426566272456		2.560661981665362
id-1342_AU12-100_AU20-100_AU6-66	1	1	3	9	25	train	id-1342_AU12-100_AU20-100_AU6-66	valence	-0.15761192044850025		2.8522452481120126
id-1342_AU12-100_AU20-100_AU6-66	1	1	3	9	25	train	id-1342_AU12-100_AU20-100_AU6-66	arousal	0.26902724352416424		2.8522452481120126
id-1279_AU22-33_AU26-33_AU4-33	1	1	3	9	26	test	id-1279_AU22-33_AU26-33_AU4-33	valence	0.14945957973564675		1.2187183145824747
id-1279_AU22-33_AU26-33_AU4-33	1	1	3	9	26	test	id-1279_AU22-33_AU26-33_AU4-33	arousal	-0.7418630048696649		1.2187183145824747
id-1302_AU14-100_AU17-33_AU26-66_AU9-33	1	1	3	9	27	test_extra	id-1302_AU14-100_AU17-33_AU26-66_AU9-33	valence	-0.5271846994311905		0.7186360588993921
id-1302_AU14-100_AU17-33_AU26-66_AU9-33	1	1	3	9	27	test_extra	id-1302_AU14-100_AU17-33_AU26-66_AU9-33	arousal	0.2472876682898883		0.7186360588993921
id-1279_AU12-100_AU15-100_AU26-100	1	1	3	9	28	train	id-1279_AU12-100_AU15-100_AU26-100	valence	0.6304476817940009		1.293699878744519
id-1279_AU12-100_AU15-100_AU26-100	1	1	3	9	28	train	id-1279_AU12-100_AU15-100_AU26-100	arousal	0.4918578896754921		1.293699878744519
id-1273_AU16Open-33_AU22-100_AU24-100_AU9-100	1	1	3	9	29	train	id-1273_AU16Open-33_AU22-100_AU24-100_AU9-100	valence	-0.29620171256700906		5.387292659080231
id-1273_AU16Open-33_AU22-100_AU24-100_AU9-100	1	1	3	9	29	train	id-1273_AU16Open-33_AU22-100_AU24-100_AU9-100	arousal	0.4375089515898024		5.387292659080231
id-1339_AU16Open-66_AU24-100_AU43-33_AU7-100	1	1	3	9	30	train	id-1339_AU16Open-66_AU24-100_AU43-33_AU7-100	valence	0.3288110754184229		1.6021571817054792
id-1339_AU16Open-66_AU24-100_AU43-33_AU7-100	1	1	3	9	30	train	id-1339_AU16Open-66_AU24-100_AU43-33_AU7-100	arousal	-0.4429438453983714		1.6021571817054792
id-1356_AU12-33_AU43-33	1	1	3	9	31	train	id-1356_AU12-33_AU43-33	valence	0.17935149568277614		5.452641101701374
id-1356_AU12-33_AU43-33	1	1	3	9	31	train	id-1356_AU12-33_AU43-33	arousal	0.3179412878012849		5.452641101701374
id-1366_AU22-66_AU43-66	1	1	3	9	32	test_extra	id-1366_AU22-66_AU43-66	valence	0.14674213283136228		1.7271477864460394
id-1366_AU22-66_AU43-66	1	1	3	9	32	test_extra	id-1366_AU22-66_AU43-66	arousal	-0.6793617260711217		1.7271477864460394
id-1307_AU16Open-33_AU2-100_AU5-33_AU6-66	1	1	3	9	33	test_extra	id-1307_AU16Open-33_AU2-100_AU5-33_AU6-66	valence	-0.17935149568277614		3.819048061769536
id-1307_AU16Open-33_AU2-100_AU5-33_AU6-66	1	1	3	9	33	test_extra	id-1307_AU16Open-33_AU2-100_AU5-33_AU6-66	arousal	0.2255480930556124		3.819048061769536
id-1269_AU13-33_AU15-100	1	1	3	9	34	train	id-1269_AU13-33_AU15-100	valence	-0.1277200045013709		1.743786073645424
id-1269_AU13-33_AU15-100	1	1	3	9	34	train	id-1269_AU13-33_AU15-100	arousal	-0.6603395977411303		1.743786073645424
id-1274_AU16Open-33_AU27i-100_AU6-100	1	1	3	9	35	test_extra	id-1274_AU16Open-33_AU27i-100_AU6-100	valence	-0.13858979211850886		3.6107135838992686
id-1274_AU16Open-33_AU27i-100_AU6-100	1	1	3	9	35	test_extra	id-1274_AU16Open-33_AU27i-100_AU6-100	arousal	0.4565310799197938		3.6107135838992686
id-1289_AU10Open-66_AU15-66_AU43-100_AU7-100	1	1	3	9	36	test_extra	id-1289_AU10Open-66_AU15-66_AU43-100_AU7-100	valence	-0.5951208720383027		2.3022270009332715
id-1289_AU10Open-66_AU15-66_AU43-100_AU7-100	1	1	3	9	36	test_extra	id-1289_AU10Open-66_AU15-66_AU43-100_AU7-100	arousal	0.38044256659982817		2.3022270009332715
id-1378_AU10Open-100_AU24-66_AU43-100	1	1	3	10	1	train	id-1378_AU10Open-100_AU24-66_AU43-100	emotion	Blij	0.015594266193934522	3.854204593580107
id-1309_AU15-66_AU43-100	1	1	3	10	2	test_extra	id-1309_AU15-66_AU43-100	emotion	Verdrietig	0.12865319450745524	1.453101431671712
id-1297_AU11-100_AU24-33	1	1	3	10	3	test	id-1297_AU11-100_AU24-33	emotion	Walging	0.07302556940645638	0.769805131004432
id-1335_AU13-33_AU4-66_AU9-33	1	1	3	10	4	test_extra	id-1335_AU13-33_AU4-66_AU9-33	emotion	Boos	0.040864472508103766	1.2363883446259931
id-1302_AU26-100	1	1	3	10	5	test_extra	id-1302_AU26-100	emotion	Verrassing	0.3808417529953354	0.8947761151230225
id-1260_AU1-100_AU16Open-100_AU2-33	1	1	3	10	6	test_extra	id-1260_AU1-100_AU16Open-100_AU2-33	emotion	Bang	0.07478035558640084	1.1365489620538938
id-1363_AU1-33_AU15-100_AU2-66_AU22-66_AU5-100	1	1	3	10	7	test	id-1363_AU1-33_AU15-100_AU2-66_AU22-66_AU5-100	emotion	Verrassing	0.08862072141336337	1.3783088291893364
id-1345_AU17-66_AU25-66_AU6-100	1	1	3	10	8	test	id-1345_AU17-66_AU25-66_AU6-100	emotion	Walging	0.1116391986425143	1.1533994538222032
id-1294_AU13-100_AU2-66_AU6-33	1	1	3	10	9	train	id-1294_AU13-100_AU2-66_AU6-33	emotion	Blij	0.15254885485804556	1.6948422818968538
id-1270_AU10Open-66_AU12-33_AU14-33	1	1	3	10	10	test_extra	id-1270_AU10Open-66_AU12-33_AU14-33	emotion	Blij	0.6435125045298591	1.46138103217163
id-1266_AU25-100_AU4-100	1	1	3	10	11	test_extra	id-1266_AU25-100_AU4-100	emotion	Boos	0.4164459481778665	1.061338591257481
id-1269_AU15-66_AU16Open-66_AU26-33_AU27i-100	1	1	3	10	12	test	id-1269_AU15-66_AU16Open-66_AU26-33_AU27i-100	emotion	Verrassing	0.5493072527392698	0.97815077753512
id-1356_AU1-33_AU12-33_AU24-33_AU6-100	1	1	3	10	13	train	id-1356_AU1-33_AU12-33_AU24-33_AU6-100	emotion	Blij	0.39393954882254295	1.4700322170610889
id-1366_AU14-33_AU25-33	1	1	3	10	14	test_extra	id-1366_AU14-33_AU25-33	emotion	Blij	0.0240032212399095	1.5031035295687616
id-1307_AU1-100_AU13-100	1	1	3	10	15	train	id-1307_AU1-100_AU13-100	emotion	Geen van allen	0.0	2.703241115405035
id-1378_AU11-66_AU27i-33_AU4-100	1	1	3	10	16	train	id-1378_AU11-66_AU27i-33_AU4-100	emotion	Verrassing	0.7891256156949601	1.661444059644964
id-1264_AU14-33_AU16Open-100_AU20-33	1	1	3	10	17	test_extra	id-1264_AU14-33_AU16Open-100_AU20-33	emotion	Bang	0.056004207761997334	1.5865289037410548
id-1377_AU13-66_AU14-100_AU9-66	1	1	3	10	18	test_extra	id-1377_AU13-66_AU14-100_AU9-66	emotion	Blij	0.18116329358616198	1.5867112245960016
id-1341_AU10Open-66_AU11-33_AU25-33_AU9-100	1	1	3	10	19	train	id-1341_AU10Open-66_AU11-33_AU25-33_AU9-100	emotion	Walging	0.4702275338582282	0.6446808041800978
id-1354_AU15-33_AU17-66_AU25-100_AU9-33	1	1	3	10	20	train	id-1354_AU15-33_AU17-66_AU25-100_AU9-33	emotion	Walging	0.18604152990705533	1.3112081141225644
id-1297_AU1-66_AU11-66	1	1	3	10	21	test_extra	id-1297_AU1-66_AU11-66	emotion	Walging	0.1012423765661485	0.5030413472904911
id-1291_AU20-33_AU24-100_AU25-33_AU27i-100	1	1	3	10	22	test	id-1291_AU20-33_AU24-100_AU25-33_AU27i-100	emotion	Bang	0.2109251095055772	1.44564378429277
id-1367_AU1-66_AU10Open-66_AU15-33_AU6-100	1	1	3	10	23	test_extra	id-1367_AU1-66_AU10Open-66_AU15-33_AU6-100	emotion	Geen van allen	0.0	7.328815358177962
id-1318_AU1-100_AU13-66_AU2-100	1	1	3	10	24	test_extra	id-1318_AU1-100_AU13-66_AU2-100	emotion	Verrassing	0.3295520851967745	0.9613087377274496
id-1356_AU2-33_AU24-100_AU7-100	1	1	3	10	25	train	id-1356_AU2-33_AU24-100_AU7-100	emotion	Verdrietig	0.03648356849250267	3.236790114588075
id-1367_AU25-66_AU4-66_AU6-33	1	1	3	10	26	test	id-1367_AU25-66_AU4-66_AU6-33	emotion	Boos	0.11910524609266755	1.0863826546456041
id-1354_AU11-100_AU15-100_AU4-66_AU9-66	1	1	3	10	27	test_extra	id-1354_AU11-100_AU15-100_AU4-66_AU9-66	emotion	Walging	0.3184079662738139	0.7197058355659465
id-1270_AU22-66_AU26-100	1	1	3	10	28	test_extra	id-1270_AU22-66_AU26-100	emotion	Verrassing	0.13252479968709488	0.8863603776935634
id-1294_AU11-100_AU2-100_AU24-33	1	1	3	10	29	test_extra	id-1294_AU11-100_AU2-100_AU24-33	emotion	Verdrietig	0.06479094175465161	1.2532014062853705
id-1260_AU13-33_AU4-66	1	1	3	10	30	train	id-1260_AU13-33_AU4-66	emotion	Boos	0.0570849220958776	0.786347126227156
id-1285_AU11-33_AU20-66_AU4-66	1	1	3	10	31	test_extra	id-1285_AU11-33_AU20-66_AU4-66	emotion	Bang	0.0942286790993035	1.6363495863524804
id-1373_AU22-66_AU4-100	1	1	3	10	32	train	id-1373_AU22-66_AU4-100	emotion	Boos	0.047255940075995095	0.9529920089735242
id-1293_AU22-100_AU24-33	1	1	3	10	33	train	id-1293_AU22-100_AU24-33	emotion	Verdrietig	0.06181893074331265	1.3280758116679865
id-1344_AU1-33_AU10Open-100	1	1	3	10	34	train	id-1344_AU1-33_AU10Open-100	emotion	Walging	0.053439077181402735	1.1032627282747849
id-1335_AU11-100_AU16Open-100_AU5-33	1	1	3	10	35	test_extra	id-1335_AU11-100_AU16Open-100_AU5-33	emotion	Walging	0.00019160522742489586	0.9115632171906328
id-1355_AU13-66_AU14-100_AU15-100_AU7-33	1	1	3	10	36	test	id-1355_AU13-66_AU14-100_AU15-100_AU7-33	emotion	Verdrietig	0.039040254820163864	1.7697930567755975
id-1344_AU12-66_AU22-66_AU26-100_AU27i-33	1	1	3	11	1	test_extra	id-1344_AU12-66_AU22-66_AU26-100_AU27i-33	emotion	Verrassing	0.5809188417523591	0.978199678161218
id-1274_AU10Open-66_AU2-33_AU43-100_AU9-66	1	1	3	11	2	test	id-1274_AU10Open-66_AU2-33_AU43-100_AU9-66	emotion	Walging	0.2837022799256958	0.9863742328716398
id-1315_AU2-100_AU24-100	1	1	3	11	3	test_extra	id-1315_AU2-100_AU24-100	emotion	Walging	0.04267279427361285	4.580717275594908
id-1367_AU14-66_AU2-100_AU20-66_AU9-33	1	1	3	11	4	train	id-1367_AU14-66_AU2-100_AU20-66_AU9-33	emotion	Boos	0.3827659596885871	0.5029230198497316
id-1280_AU20-100_AU27i-66_AU9-33	1	1	3	11	5	test_extra	id-1280_AU20-100_AU27i-66_AU9-33	emotion	Verrassing	0.17173064605032465	1.1364846667866004
id-1378_AU14-66_AU16Open-66	1	1	3	11	6	test_extra	id-1378_AU14-66_AU16Open-66	emotion	Blij	0.5004350316020675	0.6218867733159641
id-1362_AU17-66_AU27i-100_AU9-100	1	1	3	11	7	test_extra	id-1362_AU17-66_AU27i-100_AU9-100	emotion	Verrassing	0.4825674875718917	2.2532125749467014
id-1339_AU20-100_AU43-33_AU9-100	1	1	3	11	8	test_extra	id-1339_AU20-100_AU43-33_AU9-100	emotion	Boos	0.2924221533496667	1.0363219967393889
id-1274_AU15-33_AU16Open-100_AU17-100_AU25-100	1	1	3	11	9	train	id-1274_AU15-33_AU16Open-100_AU17-100_AU25-100	emotion	Boos	0.6876424616819832	0.9362486759855528
id-1310_AU10Open-100_AU2-66_AU9-100	1	1	3	11	10	test_extra	id-1310_AU10Open-100_AU2-66_AU9-100	emotion	Boos	0.8401942698385615	2.1532141144116395
id-1370_AU17-66_AU20-66_AU26-66_AU5-100	1	1	3	11	11	test_extra	id-1370_AU17-66_AU20-66_AU26-66_AU5-100	emotion	Bang	0.5109665267796396	0.9030294541753392
id-1363_AU2-66_AU24-100_AU26-33	1	1	3	11	12	test_extra	id-1363_AU2-66_AU24-100_AU26-33	emotion	Verrassing	0.3692733362454925	0.8114117158047521
id-1356_AU24-33_AU27i-33	1	1	3	11	13	train	id-1356_AU24-33_AU27i-33	emotion	Verrassing	0.023607448541862253	1.878183408138284
id-1360_AU16Open-33_AU20-66	1	1	3	11	14	train	id-1360_AU16Open-33_AU20-66	emotion	Bang	0.18842721524706948	2.278150988834568
id-1323_AU14-66_AU24-100_AU25-66_AU5-100_AU6-66	1	1	3	11	15	test_extra	id-1323_AU14-66_AU24-100_AU25-66_AU5-100_AU6-66	emotion	Walging	-0.0007144192349219184	8.2386075878685
id-1360_AU11-100_AU16Open-66_AU22-100_AU25-66_AU26-33	1	1	3	11	16	train	id-1360_AU11-100_AU16Open-66_AU22-100_AU25-66_AU26-33	emotion	Verrassing	0.15646076399744502	1.2364952015504969
id-1361_AU12-33_AU13-100_AU4-100	1	1	3	11	17	train	id-1361_AU12-33_AU13-100_AU4-100	emotion	Blij	0.21720817802367506	0.7196623683412326
id-1307_AU1-33_AU16Open-33_AU22-100_AU27i-33	1	1	3	11	18	test_extra	id-1307_AU1-33_AU16Open-33_AU22-100_AU27i-33	emotion	Verrassing	0.7095507841060394	0.6779492284722437
id-1297_AU10Open-100_AU6-100	1	1	3	11	19	test_extra	id-1297_AU10Open-100_AU6-100	emotion	Walging	0.1528006517984198	0.6115925877520567
id-1273_AU1-33_AU13-33_AU26-33	1	1	3	11	20	test	id-1273_AU1-33_AU13-33_AU26-33	emotion	Verrassing	0.07394633920048484	1.244647117081513
id-1289_AU22-33_AU4-33_AU6-66	1	1	3	11	21	test_extra	id-1289_AU22-33_AU4-33_AU6-66	emotion	Boos	0.012507466794123435	1.2447225810119562
id-1378_AU14-66_AU2-66_AU5-33_AU7-66	1	1	3	11	22	test_extra	id-1378_AU14-66_AU2-66_AU5-33_AU7-66	emotion	Blij	0.4727161496222758	1.5198079231686281
id-1323_AU12-33_AU20-100_AU25-33_AU4-33	1	1	3	11	23	train	id-1323_AU12-33_AU20-100_AU25-33_AU4-33	emotion	Verdrietig	0.03396945169203292	2.044626953119405
id-1309_AU17-100_AU20-100_AU6-100	1	1	3	11	24	test_extra	id-1309_AU17-100_AU20-100_AU6-100	emotion	Bang	0.04901067997679609	1.2114272915596302
id-1347_AU20-100_AU5-100	1	1	3	11	25	test_extra	id-1347_AU20-100_AU5-100	emotion	Bang	0.3738392987142944	0.9864207186528802
id-1289_AU4-66_AU43-66_AU6-33	1	1	3	11	26	test_extra	id-1289_AU4-66_AU43-66_AU6-33	emotion	Boos	0.02866423676711786	1.9783174018912173
id-1377_AU17-66_AU24-33_AU4-100	1	1	3	11	27	test	id-1377_AU17-66_AU24-33_AU4-100	emotion	Verdrietig	0.2545134964237321	0.978055089272857
id-1370_AU13-33_AU25-33	1	1	3	11	28	test_extra	id-1370_AU13-33_AU25-33	emotion	Blij	0.0434874410135	1.1449299860751123
id-1318_AU22-100_AU26-100_AU27i-33_AU4-33_AU6-33	1	1	3	11	29	test	id-1318_AU22-100_AU26-100_AU27i-33_AU4-33_AU6-33	emotion	Verrassing	0.7288336832481659	1.2782665995746356
id-1354_AU12-66_AU15-66_AU2-66_AU5-66_AU9-66	1	1	3	11	30	test_extra	id-1354_AU12-66_AU15-66_AU2-66_AU5-66_AU9-66	emotion	Walging	0.6988459788389445	1.0113706030570029
id-1370_AU1-33_AU26-66_AU7-100	1	1	3	11	31	train	id-1370_AU1-33_AU26-66_AU7-100	emotion	Verrassing	0.5569108029916477	0.8529295550260941
id-1370_AU20-33_AU43-100	1	1	3	11	32	test_extra	id-1370_AU20-33_AU43-100	emotion	Bang	0.09184849750715778	1.0281779294573423
id-1260_AU22-100_AU25-100_AU26-100	1	1	3	11	33	test	id-1260_AU22-100_AU25-100_AU26-100	emotion	Verrassing	0.4588821605643148	0.9863380101851362
id-1294_AU11-66_AU20-33_AU25-33	1	1	3	11	34	test	id-1294_AU11-66_AU20-33_AU25-33	emotion	Blij	0.02185617831597816	2.4867091417909246
id-1335_AU43-66_AU5-66	1	1	3	11	35	test	id-1335_AU43-66_AU5-66	emotion	Geen van allen	0.0	2.1697914267542733
id-1260_AU17-33_AU24-100_AU6-33	1	1	3	11	36	train	id-1260_AU17-33_AU24-100_AU6-33	emotion	Walging	0.011579461432672224	7.104031856644722
id-1360_AU24-66_AU26-33_AU5-100_AU7-33	1	1	3	12	1	test_extra	id-1360_AU24-66_AU26-33_AU5-100_AU7-33	emotion	Verrassing	0.8058419050494229	2.0031568071026413
id-1264_AU10Open-33_AU25-66_AU4-66	1	1	3	12	2	test	id-1264_AU10Open-33_AU25-66_AU4-66	emotion	Walging	0.0764811459451075	0.6782175782054765
id-1361_AU15-33_AU16Open-100_AU27i-100_AU6-33	1	1	3	12	3	test_extra	id-1361_AU15-33_AU16Open-100_AU27i-100_AU6-33	emotion	Verrassing	0.6800080065064352	1.3448958160079199
id-1309_AU15-33	1	1	3	12	4	test	id-1309_AU15-33	emotion	Verdrietig	0.0077892858178167206	1.7948425535669232
id-1360_AU2-100_AU26-33	1	1	3	12	5	test_extra	id-1360_AU2-100_AU26-33	emotion	Verrassing	0.7438932083866736	1.9448618270544105
id-1360_AU1-66_AU14-66_AU15-66	1	1	3	12	6	train	id-1360_AU1-66_AU14-66_AU15-66	emotion	Verdrietig	0.29962343240423905	1.1029237443035529
id-1306_AU11-33_AU16Open-66	1	1	3	12	7	test_extra	id-1306_AU11-33_AU16Open-66	emotion	Bang	0.06413864095055592	4.228569677808082
id-1360_AU1-100_AU17-100_AU2-66	1	1	3	12	8	test_extra	id-1360_AU1-100_AU17-100_AU2-66	emotion	Verdrietig	0.12687805037238928	3.186626825736312
id-1297_AU2-66_AU22-66	1	1	3	12	9	test_extra	id-1297_AU2-66_AU22-66	emotion	Verrassing	0.2908430919168838	1.1697820692270398
id-1311_AU11-66_AU5-100_AU7-66	1	1	3	12	10	train	id-1311_AU11-66_AU5-100_AU7-66	emotion	Boos	0.04989432132399022	2.203171235805712
id-1280_AU11-33_AU17-66_AU2-66_AU26-66_AU9-66	1	1	3	12	11	test	id-1280_AU11-33_AU17-66_AU2-66_AU26-66_AU9-66	emotion	Boos	0.1977173053988653	0.6530093053061137
id-1341_AU14-33_AU2-33	1	1	3	12	12	train	id-1341_AU14-33_AU2-33	emotion	Blij	0.35965041278854154	1.3364667969281072
id-1296_AU1-66_AU17-100_AU27i-33_AU4-66_AU5-100	1	1	3	12	13	test	id-1296_AU1-66_AU17-100_AU27i-33_AU4-66_AU5-100	emotion	Bang	0.4815914163898787	0.8196270210364673
id-1341_AU24-66_AU4-66_AU9-66	1	1	3	12	14	test_extra	id-1341_AU24-66_AU4-66_AU9-66	emotion	Boos	0.6280369888619218	0.7448141942222719
id-1335_AU1-33_AU14-66_AU2-33	1	1	3	12	15	train	id-1335_AU1-33_AU14-66_AU2-33	emotion	Blij	0.053439077181402735	7.080081114668246
id-1297_AU13-66_AU7-33_AU9-33	1	1	3	12	16	test_extra	id-1297_AU13-66_AU7-33_AU9-33	emotion	Boos	0.11210830448584334	0.6613737272637081
id-1270_AU11-100_AU15-100_AU20-66_AU7-66	1	1	3	12	17	test	id-1270_AU11-100_AU15-100_AU20-66_AU7-66	emotion	Walging	0.16219555965060306	0.5280691104699144
id-1309_AU11-66_AU27i-33_AU7-66_AU9-33	1	1	3	12	18	train	id-1309_AU11-66_AU27i-33_AU7-66_AU9-33	emotion	Verrassing	0.35858945236524753	1.969952074367029
id-1280_AU11-100_AU26-100_AU27i-100_AU43-66	1	1	3	12	19	test_extra	id-1280_AU11-100_AU26-100_AU27i-100_AU43-66	emotion	Verrassing	0.7071155337910203	1.0948403500196946
id-1295_AU11-66_AU13-66_AU17-33_AU9-66	1	1	3	12	20	train	id-1295_AU11-66_AU13-66_AU17-33_AU9-66	emotion	Walging	0.0675536816721316	0.836286136279341
id-1360_AU6-33_AU9-33	1	1	3	12	21	test_extra	id-1360_AU6-33_AU9-33	emotion	Walging	-0.00044209336537137656	2.2948913032651035
id-1318_AU12-100_AU14-100_AU26-33_AU6-66	1	1	3	12	22	test_extra	id-1318_AU12-100_AU14-100_AU26-33_AU6-66	emotion	Verrassing	0.750108706309884	1.378101756165961
id-1270_AU1-100_AU11-33_AU24-33_AU6-33	1	1	3	12	23	test_extra	id-1270_AU1-100_AU11-33_AU24-33_AU6-33	emotion	Walging	0.025473569883964948	1.1031048577342517
id-1339_AU1-66_AU25-66_AU43-100	1	1	3	12	24	test_extra	id-1339_AU1-66_AU25-66_AU43-100	emotion	Blij	0.2201296024153133	1.3947937736820677
id-1378_AU1-66_AU20-66_AU7-33	1	1	3	12	25	test	id-1378_AU1-66_AU20-66_AU7-33	emotion	Bang	0.023660265785130363	1.0611387627714066
id-1290_AU11-66_AU16Open-100_AU43-33_AU6-33	1	1	3	12	26	test_extra	id-1290_AU11-66_AU16Open-100_AU43-33_AU6-33	emotion	Geen van allen	0.0	1.7365191990802489
id-1279_AU11-33_AU12-100_AU15-33_AU26-66_AU43-100	1	1	3	12	27	test_extra	id-1279_AU11-33_AU12-100_AU15-33_AU26-66_AU43-100	emotion	Blij	0.8617115720761456	1.1364019583188565
id-1345_AU11-100_AU20-66	1	1	3	12	28	test_extra	id-1345_AU11-100_AU20-66	emotion	Bang	0.09601401078227584	1.3447125895872891
id-1342_AU12-66_AU14-100_AU27i-33_AU6-66	1	1	3	12	29	train	id-1342_AU12-66_AU14-100_AU27i-33_AU6-66	emotion	Verrassing	0.7755476087660341	1.0531163433442998
id-1363_AU16Open-66_AU4-33_AU6-66_AU9-100	1	1	3	12	30	test_extra	id-1363_AU16Open-66_AU4-33_AU6-66_AU9-100	emotion	Boos	0.7456741727151498	1.0364010829380277
id-1266_AU20-100_AU22-100_AU24-100_AU25-66_AU6-66	1	1	3	12	31	test_extra	id-1266_AU20-100_AU22-100_AU24-100_AU25-66_AU6-66	emotion	Bang	0.2779296642193014	1.8865487356624728
id-1366_AU14-33_AU2-100_AU26-100_AU27i-100	1	1	3	12	32	test	id-1366_AU14-33_AU2-100_AU26-100_AU27i-100	emotion	Verrassing	0.8207041613612747	1.5781237312630765
id-1315_AU15-33_AU17-100_AU22-100_AU24-66	1	1	3	12	33	test_extra	id-1315_AU15-33_AU17-100_AU22-100_AU24-66	emotion	Verdrietig	0.11308008772091645	1.1615435211051592
id-1290_AU2-100_AU20-33_AU24-33_AU25-66_AU6-66	1	1	3	12	34	train	id-1290_AU2-100_AU20-33_AU24-33_AU25-66_AU6-66	emotion	Bang	0.237972948554958	1.1447416281071128
id-1306_AU1-66_AU27i-33	1	1	3	12	35	train	id-1306_AU1-66_AU27i-33	emotion	Verrassing	0.8502712502709061	0.8529195937862823
id-1291_AU15-100_AU22-66	1	1	3	12	36	train	id-1291_AU15-100_AU22-66	emotion	Verdrietig	0.0007328661360980945	1.0114527078121682
id-1323_AU11-33_AU16Open-33_AU2-33_AU27i-100	1	1	4	13	1	test_extra	id-1323_AU11-33_AU16Open-33_AU2-33_AU27i-100	emotion	Bang	0.7854642793825227	2.7617003049654163
id-1269_AU10Open-33	1	1	4	13	2	test_extra	id-1269_AU10Open-33	emotion	Walging	0.11422747732765486	0.6865590591278306
id-1356_AU12-33_AU17-66_AU5-33_AU9-66	1	1	4	13	3	train	id-1356_AU12-33_AU17-66_AU5-33_AU9-66	emotion	Blij	0.3692076923747572	1.3197621014705874
id-1342_AU13-33_AU24-100_AU26-100_AU4-66_AU9-66	1	1	4	13	4	test_extra	id-1342_AU13-33_AU24-100_AU26-100_AU4-66_AU9-66	emotion	Boos	0.7715226668828558	1.2614755733820855
id-1285_AU16Open-100	1	1	4	13	5	train	id-1285_AU16Open-100	emotion	Bang	0.021989419441511258	2.919958126574784
id-1296_AU1-66_AU11-33	1	1	4	13	6	test_extra	id-1296_AU1-66_AU11-33	emotion	Walging	0.08218093602614825	0.5698121340565194
id-1273_AU22-100_AU26-33	1	1	4	13	7	test_extra	id-1273_AU22-100_AU26-33	emotion	Verrassing	0.4849935575568685	1.1446957460375415
id-1342_AU14-100_AU25-66	1	1	4	13	8	train	id-1342_AU14-100_AU25-66	emotion	Blij	0.3786435615293206	1.694742065797982
id-1323_AU12-66_AU16Open-33_AU7-66_AU9-100	1	1	4	13	9	test	id-1323_AU12-66_AU16Open-33_AU7-66_AU9-100	emotion	Blij	0.3116788239338799	3.3285295008126923
id-1274_AU17-33_AU20-100_AU24-100_AU9-100	1	1	4	13	10	train	id-1274_AU17-33_AU20-100_AU24-100_AU9-100	emotion	Boos	0.7116074269690192	0.8446608213307627
id-1297_AU20-33_AU22-33_AU26-66	1	1	4	13	11	test_extra	id-1297_AU20-33_AU22-33_AU26-66	emotion	Bang	0.3168306186049694	0.5862210109080479
id-1318_AU2-66_AU22-100_AU5-33_AU7-66	1	1	4	13	12	train	id-1318_AU2-66_AU22-100_AU5-33_AU7-66	emotion	Verrassing	0.0902885788196331	0.7196382198844731
id-1273_AU11-33_AU14-33_AU26-100	1	1	4	13	13	train	id-1273_AU11-33_AU14-33_AU26-100	emotion	Blij	0.4458931236821288	0.5029655815051228
id-1293_AU2-66_AU22-33_AU26-66_AU9-66	1	1	4	13	14	train	id-1293_AU2-66_AU22-33_AU26-66_AU9-66	emotion	Walging	0.10791240957176244	0.7198730636337132
id-1366_AU15-66_AU22-66_AU24-33_AU5-100	1	1	4	13	15	test_extra	id-1366_AU15-66_AU22-66_AU24-33_AU5-100	emotion	Verdrietig	0.11277452044852335	0.8863552461471045
id-1373_AU1-33_AU11-100_AU25-33_AU5-33	1	1	4	13	16	test_extra	id-1373_AU1-33_AU11-100_AU25-33_AU5-33	emotion	Verrassing	0.14554486994813012	0.9278610111387025
id-1318_AU22-33_AU25-33_AU26-66	1	1	4	13	17	test_extra	id-1318_AU22-33_AU25-33_AU26-66	emotion	Verrassing	0.20912402548742315	0.7946916257069461
id-1358_AU11-100_AU12-100_AU14-100_AU16Open-66_AU6-100	1	1	4	13	18	test	id-1358_AU11-100_AU12-100_AU14-100_AU16Open-66_AU6-100	emotion	Blij	0.8008111141235993	0.8530382230837859
id-1269_AU10Open-66_AU20-66_AU26-66_AU43-66	1	1	4	13	19	test	id-1269_AU10Open-66_AU20-66_AU26-66_AU43-66	emotion	Boos	0.44489138991234345	2.82848648637264
id-1310_AU27i-100_AU5-33_AU7-100	1	1	4	13	20	train	id-1310_AU27i-100_AU5-33_AU7-100	emotion	Verrassing	0.5324378850630329	0.7781109929519516
id-1361_AU1-66_AU17-66_AU6-66_AU7-100	1	1	4	13	21	test_extra	id-1361_AU1-66_AU17-66_AU6-66_AU7-100	emotion	Verdrietig	0.08005130737360595	0.8281061481666256
id-1376_AU14-100_AU16Open-33_AU6-66_AU9-100	1	1	4	13	22	test_extra	id-1376_AU14-100_AU16Open-33_AU6-66_AU9-100	emotion	Blij	0.4611916502963864	0.5360501756649683
id-1361_AU12-33_AU15-33_AU16Open-100_AU6-66	1	1	4	13	23	test	id-1361_AU12-33_AU15-33_AU16Open-100_AU6-66	emotion	Blij	0.7697962293353028	0.5863933705240925
id-1311_AU20-33_AU22-100_AU24-66_AU5-66	1	1	4	13	24	test_extra	id-1311_AU20-33_AU22-100_AU24-66_AU5-66	emotion	Bang	0.3991239716879129	0.7530433848169196
id-1294_AU10Open-33_AU7-100	1	1	4	13	25	test_extra	id-1294_AU10Open-33_AU7-100	emotion	Walging	0.1453355427126536	0.4863375574013844
id-1311_AU25-33	1	1	4	13	26	test_extra	id-1311_AU25-33	emotion	Geen van allen	0.0	3.1535011791993384
id-1315_AU12-66_AU17-33_AU2-100_AU4-100	1	1	4	13	27	test	id-1315_AU12-66_AU17-33_AU2-100_AU4-100	emotion	Blij	0.18243243440188195	1.0531552827314954
id-1311_AU16Open-100_AU43-100_AU6-66_AU9-100	1	1	4	13	28	test	id-1311_AU16Open-100_AU43-100_AU6-66_AU9-100	emotion	Boos	0.23500614138752865	0.5613701351794589
id-1295_AU13-33_AU5-66	1	1	4	13	29	test_extra	id-1295_AU13-33_AU5-66	emotion	Walging	0.03825697954731011	0.8114032638450226
id-1293_AU22-66_AU25-100_AU5-33_AU9-33	1	1	4	13	30	test	id-1293_AU22-66_AU25-100_AU5-33_AU9-33	emotion	Boos	0.07405074927520447	0.6444815794056922
id-1307_AU1-66_AU10Open-100_AU6-33	1	1	4	13	31	test_extra	id-1307_AU1-66_AU10Open-100_AU6-33	emotion	Walging	0.26785702096654057	1.3361905989459046
id-1309_AU10Open-100_AU2-100_AU27i-33	1	1	4	13	32	test_extra	id-1309_AU10Open-100_AU2-100_AU27i-33	emotion	Verrassing	0.8368745544516084	0.7449678387820313
id-1296_AU17-66_AU26-66_AU4-66	1	1	4	13	33	train	id-1296_AU17-66_AU26-66_AU4-66	emotion	Verrassing	0.7449522815111903	0.9949327480544524
id-1266_AU11-66_AU17-100_AU7-33	1	1	4	13	34	test_extra	id-1266_AU11-66_AU17-100_AU7-33	emotion	Walging	0.033090840758973394	0.9530351743405844
id-1279_AU13-66_AU20-33	1	1	4	13	35	train	id-1279_AU13-66_AU20-33	emotion	Bang	0.06029619139291401	1.086339187422709
id-1295_AU24-100_AU27i-33	1	1	4	13	36	train	id-1295_AU24-100_AU27i-33	emotion	Verrassing	0.7050598234790869	1.1782675353269951
id-1310_AU1-100_AU24-100_AU5-33	1	1	4	14	1	test_extra	id-1310_AU1-100_AU24-100_AU5-33	valence	-0.28261447804558665		2.0021990189088683
id-1310_AU1-100_AU24-100_AU5-33	1	1	4	14	1	test_extra	id-1310_AU1-100_AU24-100_AU5-33	arousal	-0.4728357613455008		2.0021990189088683
id-1370_AU10Open-100_AU12-100_AU24-66	1	1	4	14	2	test_extra	id-1370_AU10Open-100_AU12-100_AU24-66	valence	0.5706638498997423		2.277231536315412
id-1370_AU10Open-100_AU12-100_AU24-66	1	1	4	14	2	test_extra	id-1370_AU10Open-100_AU12-100_AU24-66	arousal	0.4728357613455008		2.277231536315412
id-1306_AU17-100_AU5-66	1	1	4	14	3	test_extra	id-1306_AU17-100_AU5-66	valence	0.07337106641568114		1.7771906348662014
id-1306_AU17-100_AU5-66	1	1	4	14	3	test_extra	id-1306_AU17-100_AU5-66	arousal	-0.8614306686581823		1.7771906348662014
id-1339_AU17-66_AU2-33_AU20-66_AU22-33	1	1	4	14	4	test_extra	id-1339_AU17-66_AU2-33_AU20-66_AU22-33	valence	-0.1684817080656382		1.1604450681452363
id-1339_AU17-66_AU2-33_AU20-66_AU22-33	1	1	4	14	4	test_extra	id-1339_AU17-66_AU2-33_AU20-66_AU22-33	arousal	-0.7826247084339323		1.1604450681452363
id-1360_AU10Open-66_AU20-33	1	1	4	14	5	test_extra	id-1360_AU10Open-66_AU20-33	valence	-0.5543591684740353		1.1270006619688502
id-1360_AU10Open-66_AU20-33	1	1	4	14	5	test_extra	id-1360_AU10Open-66_AU20-33	arousal	-0.8342561996153375		1.1270006619688502
id-1270_AU5-33_AU7-100	1	1	4	14	6	test_extra	id-1270_AU5-33_AU7-100	valence	-0.029891915947129363		0.993538778348011
id-1270_AU5-33_AU7-100	1	1	4	14	6	test_extra	id-1270_AU5-33_AU7-100	arousal	-0.9348017350738634		0.993538778348011
id-1339_AU10Open-100_AU12-33_AU20-100_AU27i-33	1	1	4	14	7	test	id-1339_AU10Open-100_AU12-33_AU20-100_AU27i-33	valence	0.8288213058067685		1.077144964095169
id-1339_AU10Open-100_AU12-33_AU20-100_AU27i-33	1	1	4	14	7	test	id-1339_AU10Open-100_AU12-33_AU20-100_AU27i-33	arousal	0.7500153455825184		1.077144964095169
id-1362_AU11-66_AU13-100_AU15-100_AU9-100	1	1	4	14	8	train	id-1362_AU11-66_AU13-100_AU15-100_AU9-100	valence	-0.7608851331996563		1.5770430877910258
id-1362_AU11-66_AU13-100_AU15-100_AU9-100	1	1	4	14	8	train	id-1362_AU11-66_AU13-100_AU15-100_AU9-100	arousal	0.4972927834840611		1.5770430877910258
id-1344_AU10Open-33_AU16Open-100	1	1	4	14	9	test_extra	id-1344_AU10Open-33_AU16Open-100	valence	-0.6793617260711217		1.2936760321426846
id-1344_AU10Open-33_AU16Open-100	1	1	4	14	9	test_extra	id-1344_AU10Open-33_AU16Open-100	arousal	0.2418527744813193		1.2936760321426846
id-1294_AU16Open-100_AU20-33_AU43-33	1	1	4	14	10	train	id-1294_AU16Open-100_AU20-33_AU43-33	valence	-0.11141532307566396		1.2605443484917491
id-1294_AU16Open-100_AU20-33_AU43-33	1	1	4	14	10	train	id-1294_AU16Open-100_AU20-33_AU43-33	arousal	0.4157693763555265		1.2605443484917491
id-1373_AU11-33_AU13-100_AU16Open-66_AU43-33	1	1	4	14	11	test	id-1373_AU11-33_AU13-100_AU16Open-66_AU43-33	valence	-0.13315489830993985		1.960695065051368
id-1373_AU11-33_AU13-100_AU16Open-66_AU43-33	1	1	4	14	11	test	id-1373_AU11-33_AU13-100_AU16Open-66_AU43-33	arousal	0.14130723902279332		1.960695065051368
id-1290_AU20-100_AU43-100	1	1	4	14	12	test_extra	id-1290_AU20-100_AU43-100	valence	-0.11956766378851742		1.7271034136556407
id-1290_AU20-100_AU43-100	1	1	4	14	12	test_extra	id-1290_AU20-100_AU43-100	arousal	0.4891404427712077		1.7271034136556407
id-1341_AU27i-66_AU43-33	1	1	4	14	13	train	id-1341_AU27i-66_AU43-33	valence	-0.06521872570282768		0.7019875086061802
id-1341_AU27i-66_AU43-33	1	1	4	14	13	train	id-1341_AU27i-66_AU43-33	arousal	0.11956766378851742		0.7019875086061802
id-1335_AU20-33_AU22-100_AU4-100_AU7-66	1	1	4	14	14	test_extra	id-1335_AU20-33_AU22-100_AU4-100_AU7-66	valence	-0.13858979211850886		0.7270454573590541
id-1335_AU20-33_AU22-100_AU4-100_AU7-66	1	1	4	14	14	test_extra	id-1335_AU20-33_AU22-100_AU4-100_AU7-66	arousal	0.5000102303883456		0.7270454573590541
id-1366_AU10Open-66_AU12-33_AU6-100_AU7-33	1	1	4	14	15	train	id-1366_AU10Open-66_AU12-33_AU6-100_AU7-33	valence	0.201091070917052		0.9853956166325588
id-1366_AU10Open-66_AU12-33_AU6-100_AU7-33	1	1	4	14	15	train	id-1366_AU10Open-66_AU12-33_AU6-100_AU7-33	arousal	0.4293566108769489		0.9853956166325588
id-1269_AU17-33	1	1	4	14	16	train	id-1269_AU17-33	valence	0.17663404877849165		1.7523956024451763
id-1269_AU17-33	1	1	4	14	16	train	id-1269_AU17-33	arousal	-0.6521872570282768		1.7523956024451763
id-1285_AU16Open-33_AU5-33	1	1	4	14	17	test	id-1285_AU16Open-33_AU5-33	valence	0.5108800180054835		1.4021448659923408
id-1285_AU16Open-33_AU5-33	1	1	4	14	17	test	id-1285_AU16Open-33_AU5-33	arousal	-0.9239319474567256		1.4021448659923408
id-1361_AU7-66	1	1	4	14	18	test_extra	id-1361_AU7-66	valence	-0.3695727789826902		1.3271343236820028
id-1361_AU7-66	1	1	4	14	18	test_extra	id-1361_AU7-66	arousal	-0.8396910934239064		1.3271343236820028
id-1342_AU17-100_AU2-100_AU20-33_AU26-33	1	1	4	14	19	train	id-1342_AU17-100_AU2-100_AU20-33_AU26-33	valence	-0.6630570446454148		2.0937983440799144
id-1342_AU17-100_AU2-100_AU20-33_AU26-33	1	1	4	14	19	train	id-1342_AU17-100_AU2-100_AU20-33_AU26-33	arousal	0.3641378851741212		2.0937983440799144
id-1347_AU17-66_AU26-100_AU27i-100_AU9-33	1	1	4	14	20	train	id-1347_AU17-66_AU26-100_AU27i-100_AU9-33	valence	-0.5489242746654663		2.8272540094740184
id-1347_AU17-66_AU26-100_AU27i-100_AU9-33	1	1	4	14	20	train	id-1347_AU17-66_AU26-100_AU27i-100_AU9-33	arousal	0.6929489605925442		2.8272540094740184
id-1354_AU1-66_AU10Open-100	1	1	4	14	21	test	id-1354_AU1-66_AU10Open-100	valence	-0.3532680975569833		5.727757836853925
id-1354_AU1-66_AU10Open-100	1	1	4	14	21	test	id-1354_AU1-66_AU10Open-100	arousal	0.5978383189425871		5.727757836853925
id-1307_AU10Open-66_AU17-33_AU22-33_AU9-100	1	1	4	14	22	test	id-1307_AU10Open-66_AU17-33_AU22-33_AU9-100	valence	-0.6087081065597252		0.8853301441267831
id-1307_AU10Open-66_AU17-33_AU22-33_AU9-100	1	1	4	14	22	test	id-1307_AU10Open-66_AU17-33_AU22-33_AU9-100	arousal	0.6141430003682941		0.8853301441267831
id-1280_AU12-100_AU14-33_AU27i-66_AU4-66	1	1	4	14	23	train	id-1280_AU12-100_AU14-33_AU27i-66_AU4-66	valence	-0.21467830543847446		4.777503055533998
id-1280_AU12-100_AU14-33_AU27i-66_AU4-66	1	1	4	14	23	train	id-1280_AU12-100_AU14-33_AU27i-66_AU4-66	arousal	0.7853421553382167		4.777503055533998
id-1289_AU14-33_AU25-100_AU27i-66_AU7-33	1	1	4	14	24	train	id-1289_AU14-33_AU25-100_AU27i-66_AU7-33	valence	0.5299021463354749		0.8354898408942972
id-1289_AU14-33_AU25-100_AU27i-66_AU7-33	1	1	4	14	24	train	id-1289_AU14-33_AU25-100_AU27i-66_AU7-33	arousal	0.6358825756025699		0.8354898408942972
id-1376_AU10Open-100_AU11-100_AU16Open-66_AU22-33	1	1	4	14	25	test_extra	id-1376_AU10Open-100_AU11-100_AU16Open-66_AU22-33	valence	-0.1630468142570692		3.1190512916255098
id-1376_AU10Open-100_AU11-100_AU16Open-66_AU22-33	1	1	4	14	25	test_extra	id-1376_AU10Open-100_AU11-100_AU16Open-66_AU22-33	arousal	-0.40489958873838855		3.1190512916255098
id-1376_AU12-33_AU17-100_AU22-100_AU26-100	1	1	4	14	26	test_extra	id-1376_AU12-33_AU17-100_AU22-100_AU26-100	valence	0.7880596022425012		2.010548348080192
id-1376_AU12-33_AU17-100_AU22-100_AU26-100	1	1	4	14	26	test_extra	id-1376_AU12-33_AU17-100_AU22-100_AU26-100	arousal	0.5869685313254491		2.010548348080192
id-1260_AU11-66_AU14-66_AU43-33	1	1	4	14	27	test_extra	id-1260_AU11-66_AU14-66_AU43-33	valence	0.6386000225068544		1.3270887434682663
id-1260_AU11-66_AU14-66_AU43-33	1	1	4	14	27	test_extra	id-1260_AU11-66_AU14-66_AU43-33	arousal	-0.5652289560911733		1.3270887434682663
id-1294_AU13-66_AU15-33_AU24-100_AU4-66	1	1	4	14	28	test_extra	id-1294_AU13-66_AU15-33_AU24-100_AU4-66	valence	0.08695830093710358		0.6354343598140986
id-1294_AU13-66_AU15-33_AU24-100_AU4-66	1	1	4	14	28	test_extra	id-1294_AU13-66_AU15-33_AU24-100_AU4-66	arousal	-0.19293873020419855		0.6354343598140986
id-1354_AU14-66_AU7-100	1	1	4	14	29	test_extra	id-1354_AU14-66_AU7-100	valence	0.19565617710848307		1.3103973296638287
id-1354_AU14-66_AU7-100	1	1	4	14	29	test_extra	id-1354_AU14-66_AU7-100	arousal	-0.3940298011212506		1.3103973296638287
id-1344_AU13-66_AU14-66_AU24-33_AU9-33	1	1	4	14	30	test	id-1344_AU13-66_AU14-66_AU24-33_AU9-33	valence	-0.17935149568277614		0.9105399263044092
id-1344_AU13-66_AU14-66_AU24-33_AU9-33	1	1	4	14	30	test	id-1344_AU13-66_AU14-66_AU24-33_AU9-33	arousal	0.5271846994311905		0.9105399263044092
id-1309_AU11-66_AU24-66	1	1	4	14	31	test	id-1309_AU11-66_AU24-66	valence	-0.1630468142570692		1.2686693988634945
id-1309_AU11-66_AU24-66	1	1	4	14	31	test	id-1309_AU11-66_AU24-66	arousal	-0.720123429635389		1.2686693988634945
id-1297_AU11-100_AU12-66_AU4-33_AU6-33	1	1	4	14	32	train	id-1297_AU11-100_AU12-66_AU4-33_AU6-33	valence	-0.2282655399598969		4.269055472327636
id-1297_AU11-100_AU12-66_AU4-33_AU6-33	1	1	4	14	32	train	id-1297_AU11-100_AU12-66_AU4-33_AU6-33	arousal	0.1250025575970864		4.269055472327636
id-1293_AU1-33_AU22-33_AU27i-100	1	1	4	14	33	test_extra	id-1293_AU1-33_AU22-33_AU27i-100	valence	0.11956766378851742		1.1520999649546866
id-1293_AU1-33_AU22-33_AU27i-100	1	1	4	14	33	test_extra	id-1293_AU1-33_AU22-33_AU27i-100	arousal	0.6222953410811475		1.1520999649546866
id-1295_AU1-33_AU14-33_AU6-66	1	1	4	14	34	test_extra	id-1295_AU1-33_AU14-33_AU6-66	valence	0.13587234521422434		1.0769146481834468
id-1295_AU1-33_AU14-33_AU6-66	1	1	4	14	34	test_extra	id-1295_AU1-33_AU14-33_AU6-66	arousal	-0.8532783279453289		1.0769146481834468
id-1370_AU11-66_AU2-100_AU25-66_AU7-66	1	1	4	14	35	test_extra	id-1370_AU11-66_AU2-100_AU25-66_AU7-66	valence	-0.11956766378851742		1.2187521224232114
id-1370_AU11-66_AU2-100_AU25-66_AU7-66	1	1	4	14	35	test_extra	id-1370_AU11-66_AU2-100_AU25-66_AU7-66	arousal	-0.7989293898596391		1.2187521224232114
id-1361_AU10Open-33_AU11-100_AU13-66_AU2-100	1	1	4	14	36	test_extra	id-1361_AU10Open-33_AU11-100_AU13-66_AU2-100	valence	-0.6549047039325613		2.0938243036716813
id-1361_AU10Open-33_AU11-100_AU13-66_AU2-100	1	1	4	14	36	test_extra	id-1361_AU10Open-33_AU11-100_AU13-66_AU2-100	arousal	0.5978383189425871		2.0938243036716813
id-1274_AU15-33_AU16Open-100_AU17-100_AU25-100	1	1	4	15	1	train	id-1274_AU15-33_AU16Open-100_AU17-100_AU25-100	valence	-0.7282757703482424		2.9356069307286816
id-1274_AU15-33_AU16Open-100_AU17-100_AU25-100	1	1	4	15	1	train	id-1274_AU15-33_AU16Open-100_AU17-100_AU25-100	arousal	-0.29348426566272456		2.9356069307286816
