	rep	session	run	block	trial	trial_type	rating_type	rating	rating_RT
id-1270_gender-F_age-30	1	4	1	3	1	id-1270_gender-F_age-30	trustworthiness	-0.020000000000000018	1.9509999999999998
id-1366_gender-F_age-24	1	4	1	3	2	id-1366_gender-F_age-24	trustworthiness	-0.18500000000000005	1.693
id-1294_gender-F_age-26	1	4	1	3	3	id-1294_gender-F_age-26	trustworthiness	0.3999999999999999	0.9009999999999999
id-1358_gender-F_age-32	1	4	1	3	4	id-1358_gender-F_age-32	trustworthiness	-0.355	1.86
id-1356_gender-F_age-20	1	4	1	3	5	id-1356_gender-F_age-20	trustworthiness	-0.345	0.71
id-1274_gender-F_age-33	1	4	1	3	6	id-1274_gender-F_age-33	trustworthiness	-0.5625	1.618
id-1354_gender-F_age-23	1	4	1	3	7	id-1354_gender-F_age-23	trustworthiness	-0.26249999999999996	0.684
id-1297_gender-F_age-22	1	4	1	3	8	id-1297_gender-F_age-22	trustworthiness	-0.765	0.9259999999999999
id-1290_gender-F_age-23	1	4	1	3	9	id-1290_gender-F_age-23	trustworthiness	-0.56	0.7759999999999999
id-1307_gender-F_age-22	1	4	1	3	10	id-1307_gender-F_age-22	trustworthiness	0.2350000000000001	1.0759999999999998
id-1266_gender-M_age-21	1	4	1	3	11	id-1266_gender-M_age-21	trustworthiness	0.32000000000000006	0.943
id-1361_gender-F_age-19	1	4	1	3	12	id-1361_gender-F_age-19	trustworthiness	0.595	0.985
id-1291_gender-F_age-24	1	4	1	3	13	id-1291_gender-F_age-24	trustworthiness	0.33499999999999996	0.7509999999999999
id-1339_gender-F_age-30	1	4	1	3	14	id-1339_gender-F_age-30	trustworthiness	0.6225	0.851
id-1362_gender-F_age-24	1	4	1	3	15	id-1362_gender-F_age-24	trustworthiness	0.31000000000000005	0.7340000000000001
id-1347_gender-F_age-27	1	4	1	3	16	id-1347_gender-F_age-27	trustworthiness	-0.21499999999999997	0.818
id-1367_gender-M_age-20	1	4	1	3	17	id-1367_gender-M_age-20	trustworthiness	0.14250000000000007	0.743
id-1378_gender-F_age-19	1	4	1	3	18	id-1378_gender-F_age-19	trustworthiness	0.4575	0.909
id-1269_gender-F_age-23	1	4	1	3	19	id-1269_gender-F_age-23	trustworthiness	0.21999999999999997	1.493
id-1295_gender-F_age-26	1	4	1	3	20	id-1295_gender-F_age-26	trustworthiness	-0.16749999999999998	0.784
id-1306_gender-F_age-21	1	4	1	3	21	id-1306_gender-F_age-21	trustworthiness	-0.36750000000000005	1.018
id-1315_gender-M_age-16	1	4	1	3	22	id-1315_gender-M_age-16	trustworthiness	-0.72	1.159
id-1355_gender-F_age-19	1	4	1	3	23	id-1355_gender-F_age-19	trustworthiness	0.0	0.8759999999999999
id-1377_gender-M_age-20	1	4	1	3	24	id-1377_gender-M_age-20	trustworthiness	0.72	1.443
id-1342_gender-M_age-19	1	4	1	3	25	id-1342_gender-M_age-19	trustworthiness	0.16500000000000004	0.768
id-1380_gender-F_age-21	1	4	1	3	26	id-1380_gender-F_age-21	trustworthiness	0.3075000000000001	0.71
id-1341_gender-M_age-19	1	4	1	3	27	id-1341_gender-M_age-19	trustworthiness	0.5674999999999999	0.626
id-1280_gender-M_age-18	1	4	1	3	28	id-1280_gender-M_age-18	trustworthiness	0.3500000000000001	1.851
id-1311_gender-F_age-22	1	4	1	3	29	id-1311_gender-F_age-22	trustworthiness	0.73	0.843
id-1370_gender-M_age-19	1	4	1	3	30	id-1370_gender-M_age-19	trustworthiness	0.8225	1.186
id-1335_gender-M_age-23	1	4	1	3	31	id-1335_gender-M_age-23	trustworthiness	0.5475000000000001	0.826
id-1309_gender-M_age-22	1	4	1	3	32	id-1309_gender-M_age-22	trustworthiness	-0.30500000000000005	0.618
id-1279_gender-F_age-19	1	4	1	3	33	id-1279_gender-F_age-19	trustworthiness	0.8400000000000001	1.368
id-1273_gender-F_age-20	1	4	1	3	34	id-1273_gender-F_age-20	trustworthiness	0.44500000000000006	1.034
id-1302_gender-F_age-30	1	4	1	3	35	id-1302_gender-F_age-30	trustworthiness	-0.18000000000000005	1.301
id-1296_gender-F_age-23	1	4	1	3	36	id-1296_gender-F_age-23	trustworthiness	0.0	0.551
id-1345_gender-M_age-18	1	4	1	3	37	id-1345_gender-M_age-18	trustworthiness	-0.275	1.035
id-1376_gender-F_age-19	1	4	1	3	38	id-1376_gender-F_age-19	trustworthiness	0.6924999999999999	1.185
id-1260_gender-F_age-22	1	4	1	3	39	id-1260_gender-F_age-22	trustworthiness	0.565	0.909
id-1373_gender-F_age-30	1	4	1	3	40	id-1373_gender-F_age-30	trustworthiness	0.12749999999999995	1.46
id-1344_gender-M_age-25	1	4	1	3	41	id-1344_gender-M_age-25	trustworthiness	-0.4075	1.4769999999999999
id-1293_gender-F_age-31	1	4	1	3	42	id-1293_gender-F_age-31	trustworthiness	0.0024999999999999467	0.743
id-1323_gender-F_age-23	1	4	1	3	43	id-1323_gender-F_age-23	trustworthiness	0.0024999999999999467	1.768
id-1285_gender-F_age-19	1	4	1	3	44	id-1285_gender-F_age-19	trustworthiness	0.31499999999999995	0.868
id-1318_gender-M_age-35	1	4	1	3	45	id-1318_gender-M_age-35	trustworthiness	-0.7875	1.043
id-1289_gender-F_age-20	1	4	1	3	46	id-1289_gender-F_age-20	trustworthiness	0.18500000000000005	1.493
id-1264_gender-F_age-26	1	4	1	3	47	id-1264_gender-F_age-26	trustworthiness	0.36250000000000004	0.626
id-1310_gender-F_age-28	1	4	1	3	48	id-1310_gender-F_age-28	trustworthiness	0.7375	1.126
id-1363_gender-M_age-19	1	4	1	3	49	id-1363_gender-M_age-19	trustworthiness	0.7075	1.168
id-1360_gender-F_age-20	1	4	1	3	50	id-1360_gender-F_age-20	trustworthiness	0.25249999999999995	0.685
id-1344_gender-M_age-25	1	4	1	4	1	id-1344_gender-M_age-25	arousal	0.23233147992797804	7.377764281472992
id-1344_gender-M_age-25	1	4	1	4	1	id-1344_gender-M_age-25	valence	-0.1630468142570692	7.377764281472992
id-1354_gender-F_age-23	1	4	1	4	2	id-1354_gender-F_age-23	arousal	0.09102424090518474	2.835552928740072
id-1354_gender-F_age-23	1	4	1	4	2	id-1354_gender-F_age-23	valence	-0.23098298686418134	2.835552928740072
id-1370_gender-M_age-19	1	4	1	4	3	id-1370_gender-M_age-19	arousal	0.5081523407128534	1.327083611920898
id-1370_gender-M_age-19	1	4	1	4	3	id-1370_gender-M_age-19	valence	0.5217498056226214	1.327083611920898
id-1302_gender-F_age-30	1	4	1	4	4	id-1302_gender-F_age-30	arousal	0.4972825530957155	3.552294843006166
id-1302_gender-F_age-30	1	4	1	4	4	id-1302_gender-F_age-30	valence	-0.010869787617137949	3.552294843006166
id-1377_gender-M_age-20	1	4	1	4	5	id-1377_gender-M_age-20	arousal	0.5964693651020992	1.8039794243068168
id-1377_gender-M_age-20	1	4	1	4	5	id-1377_gender-M_age-20	valence	0.4429438453983714	1.8039794243068168
id-1342_gender-M_age-19	1	4	1	4	6	id-1342_gender-M_age-19	arousal	0.13178594446945208	2.1354586591987754
id-1342_gender-M_age-19	1	4	1	4	6	id-1342_gender-M_age-19	valence	-0.3994646949298196	2.1354586591987754
id-1260_gender-F_age-22	1	4	1	4	7	id-1260_gender-F_age-22	arousal	0.37092127204648684	1.5436883327638498
id-1260_gender-F_age-22	1	4	1	4	7	id-1260_gender-F_age-22	valence	-0.23370043376846586	1.5436883327638498
id-1356_gender-F_age-20	1	4	1	4	8	id-1356_gender-F_age-20	arousal	0.5027174469042844	2.718912860593264
id-1356_gender-F_age-20	1	4	1	4	8	id-1356_gender-F_age-20	valence	0.3559855444612677	2.718912860593264
id-1341_gender-M_age-19	1	4	1	4	9	id-1341_gender-M_age-19	arousal	0.17662381839014607	3.769002798503607
id-1341_gender-M_age-19	1	4	1	4	9	id-1341_gender-M_age-19	valence	0.17935149568277614	3.769002798503607
id-1289_gender-F_age-20	1	4	1	4	10	id-1289_gender-F_age-20	arousal	0.4986412765478578	2.3771560422010225
id-1289_gender-F_age-20	1	4	1	4	10	id-1289_gender-F_age-20	valence	-0.00815234071285346	2.3771560422010225
id-1264_gender-F_age-26	1	4	1	4	11	id-1264_gender-F_age-26	arousal	0.6168502168842329	2.102313693895667
id-1264_gender-F_age-26	1	4	1	4	11	id-1264_gender-F_age-26	valence	-0.32337618160985393	2.102313693895667
id-1360_gender-F_age-20	1	4	1	4	12	id-1360_gender-F_age-20	arousal	0.35189914371649544	2.0771736403885366
id-1360_gender-F_age-20	1	4	1	4	12	id-1360_gender-F_age-20	valence	0.44566129230265583	2.0771736403885366
id-1297_gender-F_age-22	1	4	1	4	13	id-1297_gender-F_age-22	arousal	0.5529902146335475	3.2773779363387803
id-1297_gender-F_age-22	1	4	1	4	13	id-1297_gender-F_age-22	valence	-0.5842510844211647	3.2773779363387803
id-1274_gender-F_age-33	1	4	1	4	14	id-1274_gender-F_age-33	arousal	0.6766340487784916	0.9104569159817402
id-1274_gender-F_age-33	1	4	1	4	14	id-1274_gender-F_age-33	valence	-0.6576221508368458	0.9104569159817402
id-1269_gender-F_age-23	1	4	1	4	15	id-1269_gender-F_age-23	arousal	0.6521770266399313	1.1769064678919676
id-1269_gender-F_age-23	1	4	1	4	15	id-1269_gender-F_age-23	valence	-0.5407719339526129	1.1769064678919676
id-1309_gender-M_age-22	1	4	1	4	16	id-1309_gender-M_age-22	arousal	0.21059190469370215	0.8769714574291356
id-1309_gender-M_age-22	1	4	1	4	16	id-1309_gender-M_age-22	valence	-0.33424596922699185	0.8769714574291356
id-1335_gender-M_age-23	1	4	1	4	17	id-1335_gender-M_age-23	arousal	0.3749974424029136	2.0772421616366046
id-1335_gender-M_age-23	1	4	1	4	17	id-1335_gender-M_age-23	valence	0.4510961861112248	2.0772421616366046
id-1362_gender-F_age-24	1	4	1	4	18	id-1362_gender-F_age-24	arousal	0.33559446229078854	1.5021403079717857
id-1362_gender-F_age-24	1	4	1	4	18	id-1362_gender-F_age-24	valence	0.11685021688423293	1.5021403079717857
id-1285_gender-F_age-19	1	4	1	4	19	id-1285_gender-F_age-19	arousal	0.4904889358350043	0.868636013620744
id-1285_gender-F_age-19	1	4	1	4	19	id-1285_gender-F_age-19	valence	-0.00815234071285346	0.868636013620744
id-1266_gender-M_age-21	1	4	1	4	20	id-1266_gender-M_age-21	arousal	0.30434382289151696	2.2605500837498766
id-1266_gender-M_age-21	1	4	1	4	20	id-1266_gender-M_age-21	valence	-0.0054348938085689745	2.2605500837498766
id-1366_gender-F_age-24	1	4	1	4	21	id-1366_gender-F_age-24	arousal	0.6983736240127676	2.86059216243666
id-1366_gender-F_age-24	1	4	1	4	21	id-1366_gender-F_age-24	valence	0.0027174469042844872	2.86059216243666
id-1355_gender-F_age-19	1	4	1	4	22	id-1355_gender-F_age-19	arousal	0.6915800067520563	1.143705055569626
id-1355_gender-F_age-19	1	4	1	4	22	id-1355_gender-F_age-19	valence	-0.312506393992716	1.143705055569626
id-1358_gender-F_age-32	1	4	1	4	23	id-1358_gender-F_age-32	arousal	0.3220072277693662	2.9021779191944006
id-1358_gender-F_age-32	1	4	1	4	23	id-1358_gender-F_age-32	valence	0.02173957523427589	2.9021779191944006
id-1363_gender-M_age-19	1	4	1	4	24	id-1363_gender-M_age-19	arousal	0.2527123317101117	1.827164660181552
id-1363_gender-M_age-19	1	4	1	4	24	id-1363_gender-M_age-19	valence	0.20652596472562101	1.827164660181552
id-1296_gender-F_age-23	1	4	1	4	25	id-1296_gender-F_age-23	arousal	0.5	1.4534364915189144
id-1296_gender-F_age-23	1	4	1	4	25	id-1296_gender-F_age-23	valence	-0.0027174469042844872	1.4534364915189144
id-1345_gender-M_age-18	1	4	1	4	26	id-1345_gender-M_age-18	arousal	0.3410293560993576	0.9853298120851832
id-1345_gender-M_age-18	1	4	1	4	26	id-1345_gender-M_age-18	valence	0.1630468142570692	0.9853298120851832
id-1307_gender-F_age-22	1	4	1	4	27	id-1307_gender-F_age-22	arousal	0.29890892908294797	1.451957398498962
id-1307_gender-F_age-22	1	4	1	4	27	id-1307_gender-F_age-22	valence	0.0027174469042844872	1.451957398498962
id-1279_gender-F_age-19	1	4	1	4	28	id-1279_gender-F_age-19	arousal	0.695656177108483	0.7935877393456394
id-1279_gender-F_age-19	1	4	1	4	28	id-1279_gender-F_age-19	valence	0.5000102303883456	0.7935877393456394
id-1295_gender-F_age-26	1	4	1	4	29	id-1295_gender-F_age-26	arousal	0.06928466567090885	1.1938369514264195
id-1295_gender-F_age-26	1	4	1	4	29	id-1295_gender-F_age-26	valence	-0.024457022138560384	1.1938369514264195
id-1378_gender-F_age-19	1	4	1	4	30	id-1378_gender-F_age-19	arousal	0.5978280885542415	0.64371546959228
id-1378_gender-F_age-19	1	4	1	4	30	id-1378_gender-F_age-19	valence	0.5788161906125957	0.64371546959228
id-1367_gender-M_age-20	1	4	1	4	31	id-1367_gender-M_age-20	arousal	0.3953782941850472	0.6935793175707659
id-1367_gender-M_age-20	1	4	1	4	31	id-1367_gender-M_age-20	valence	0.2581574559070263	0.6935793175707659
id-1290_gender-F_age-23	1	4	1	4	32	id-1290_gender-F_age-23	arousal	0.7255480930556124	1.7270382128208441
id-1290_gender-F_age-23	1	4	1	4	32	id-1290_gender-F_age-23	valence	-0.7092536420182511	1.7270382128208441
id-1373_gender-F_age-30	1	4	1	4	33	id-1373_gender-F_age-30	arousal	0.13857956173016328	3.035540794140616
id-1373_gender-F_age-30	1	4	1	4	33	id-1373_gender-F_age-30	valence	-0.17935149568277614	3.035540794140616
id-1291_gender-F_age-24	1	4	1	4	34	id-1291_gender-F_age-24	arousal	0.34238807955149975	1.035503967742443
id-1291_gender-F_age-24	1	4	1	4	34	id-1291_gender-F_age-24	valence	0.0054348938085689745	1.035503967742443
id-1315_gender-M_age-16	1	4	1	4	35	id-1315_gender-M_age-16	arousal	0.6304374514056553	1.2019695481913004
id-1315_gender-M_age-16	1	4	1	4	35	id-1315_gender-M_age-16	valence	-0.6032732127511561	1.2019695481913004
id-1361_gender-F_age-19	1	4	1	4	36	id-1361_gender-F_age-19	arousal	0.37092127204648684	1.7438256167433792
id-1361_gender-F_age-19	1	4	1	4	36	id-1361_gender-F_age-19	valence	0.3451157568441299	1.7438256167433792
id-1270_gender-F_age-30	1	4	1	4	37	id-1270_gender-F_age-30	arousal	0.17662381839014607	2.9108049556252813
id-1270_gender-F_age-30	1	4	1	4	37	id-1270_gender-F_age-30	valence	-0.0027174469042844872	2.9108049556252813
id-1380_gender-F_age-21	1	4	1	4	38	id-1380_gender-F_age-21	arousal	0.2785280773008143	2.202310645153375
id-1380_gender-F_age-21	1	4	1	4	38	id-1380_gender-F_age-21	valence	0.08967574784138807	2.202310645153375
id-1273_gender-F_age-20	1	4	1	4	39	id-1273_gender-F_age-20	arousal	0.43478127429717234	1.5354262398950596
id-1273_gender-F_age-20	1	4	1	4	39	id-1273_gender-F_age-20	valence	0.4510961861112248	1.5354262398950596
id-1339_gender-F_age-30	1	4	1	4	40	id-1339_gender-F_age-30	arousal	0.22146169231084006	0.8853790447537904
id-1339_gender-F_age-30	1	4	1	4	40	id-1339_gender-F_age-30	valence	0.4809881020583541	0.8853790447537904
id-1318_gender-M_age-35	1	4	1	4	41	id-1318_gender-M_age-35	arousal	0.43206382739288784	1.3770446574408195
id-1318_gender-M_age-35	1	4	1	4	41	id-1318_gender-M_age-35	valence	-0.5353370401440439	1.3770446574408195
id-1294_gender-F_age-26	1	4	1	4	42	id-1294_gender-F_age-26	arousal	0.6100565996235217	0.8021115411211213
id-1294_gender-F_age-26	1	4	1	4	42	id-1294_gender-F_age-26	valence	0.5380544870483285	0.8021115411211213
id-1311_gender-F_age-22	1	4	1	4	43	id-1311_gender-F_age-22	arousal	0.3872259534721938	1.8354596553226656
id-1311_gender-F_age-22	1	4	1	4	43	id-1311_gender-F_age-22	valence	0.5353370401440439	1.8354596553226656
id-1347_gender-F_age-27	1	4	1	4	44	id-1347_gender-F_age-27	arousal	0.14809062589515903	1.7187688754156625
id-1347_gender-F_age-27	1	4	1	4	44	id-1347_gender-F_age-27	valence	-0.2880493718541556	1.7187688754156625
id-1323_gender-F_age-23	1	4	1	4	45	id-1323_gender-F_age-23	arousal	0.22282041576298234	1.7271520124268136
id-1323_gender-F_age-23	1	4	1	4	45	id-1323_gender-F_age-23	valence	-0.4538136330155093	1.7271520124268136
id-1306_gender-F_age-21	1	4	1	4	46	id-1306_gender-F_age-21	arousal	0.19428722326799525	1.7604620928077566
id-1306_gender-F_age-21	1	4	1	4	46	id-1306_gender-F_age-21	valence	-0.12228511069280193	1.7604620928077566
id-1310_gender-F_age-28	1	4	1	4	47	id-1310_gender-F_age-28	arousal	0.6752753253263495	2.2773565045827127
id-1310_gender-F_age-28	1	4	1	4	47	id-1310_gender-F_age-28	valence	-0.4538136330155093	2.2773565045827127
id-1280_gender-M_age-18	1	4	1	4	48	id-1280_gender-M_age-18	arousal	0.8057127767320047	2.6189168149030597
id-1280_gender-M_age-18	1	4	1	4	48	id-1280_gender-M_age-18	valence	-0.5788161906125957	2.6189168149030597
id-1293_gender-F_age-31	1	4	1	4	49	id-1293_gender-F_age-31	arousal	0.3586927609772067	0.985343093737356
id-1293_gender-F_age-31	1	4	1	4	49	id-1293_gender-F_age-31	valence	0.0	0.985343093737356
id-1376_gender-F_age-19	1	4	1	4	50	id-1376_gender-F_age-19	arousal	0.40488935835004297	1.3520247425094567
id-1376_gender-F_age-19	1	4	1	4	50	id-1376_gender-F_age-19	valence	0.50272767729263	1.3520247425094567
id-1297_gender-F_age-22	1	4	1	7	1	id-1297_gender-F_age-22	dominance	0.2975000000000001	1.2009999999999998
id-1373_gender-F_age-30	1	4	1	7	2	id-1373_gender-F_age-30	dominance	-0.37749999999999995	1.4680000000000002
id-1264_gender-F_age-26	1	4	1	7	3	id-1264_gender-F_age-26	dominance	-0.64	1.518
id-1361_gender-F_age-19	1	4	1	7	4	id-1361_gender-F_age-19	dominance	0.007500000000000062	0.418
id-1279_gender-F_age-19	1	4	1	7	5	id-1279_gender-F_age-19	dominance	-0.16749999999999998	0.71
id-1290_gender-F_age-23	1	4	1	7	6	id-1290_gender-F_age-23	dominance	0.3600000000000001	0.8759999999999999
id-1306_gender-F_age-21	1	4	1	7	7	id-1306_gender-F_age-21	dominance	0.13250000000000006	0.518
id-1318_gender-M_age-35	1	4	1	7	8	id-1318_gender-M_age-35	dominance	0.685	1.16
id-1296_gender-F_age-23	1	4	1	7	9	id-1296_gender-F_age-23	dominance	0.004999999999999893	0.5429999999999999
id-1378_gender-F_age-19	1	4	1	7	10	id-1378_gender-F_age-19	dominance	-0.20750000000000002	1.026
id-1342_gender-M_age-19	1	4	1	7	11	id-1342_gender-M_age-19	dominance	0.48	0.9179999999999999
id-1335_gender-M_age-23	1	4	1	7	12	id-1335_gender-M_age-23	dominance	-0.23250000000000004	2.151
id-1310_gender-F_age-28	1	4	1	7	13	id-1310_gender-F_age-28	dominance	0.8325	2.401
id-1354_gender-F_age-23	1	4	1	7	14	id-1354_gender-F_age-23	dominance	-0.8325	1.001
id-1341_gender-M_age-19	1	4	1	7	15	id-1341_gender-M_age-19	dominance	-0.0050000000000000044	1.268
id-1345_gender-M_age-18	1	4	1	7	16	id-1345_gender-M_age-18	dominance	0.6324999999999998	2.318
id-1295_gender-F_age-26	1	4	1	7	17	id-1295_gender-F_age-26	dominance	0.5874999999999999	0.951
id-1370_gender-M_age-19	1	4	1	7	18	id-1370_gender-M_age-19	dominance	-0.16249999999999998	0.8340000000000001
id-1260_gender-F_age-22	1	4	1	7	19	id-1260_gender-F_age-22	dominance	-0.8525	1.368
id-1323_gender-F_age-23	1	4	1	7	20	id-1323_gender-F_age-23	dominance	-0.54	1.1179999999999999
id-1294_gender-F_age-26	1	4	1	7	21	id-1294_gender-F_age-26	dominance	-0.5625	1.359
id-1366_gender-F_age-24	1	4	1	7	22	id-1366_gender-F_age-24	dominance	-0.7925	1.093
id-1289_gender-F_age-20	1	4	1	7	23	id-1289_gender-F_age-20	dominance	0.07250000000000001	0.7340000000000001
id-1315_gender-M_age-16	1	4	1	7	24	id-1315_gender-M_age-16	dominance	0.5550000000000002	1.0759999999999998
id-1307_gender-F_age-22	1	4	1	7	25	id-1307_gender-F_age-22	dominance	-0.43000000000000005	0.868
id-1293_gender-F_age-31	1	4	1	7	26	id-1293_gender-F_age-31	dominance	-0.86	1.285
id-1380_gender-F_age-21	1	4	1	7	27	id-1380_gender-F_age-21	dominance	-0.10999999999999999	0.885
id-1344_gender-M_age-25	1	4	1	7	28	id-1344_gender-M_age-25	dominance	-0.1925	0.9179999999999999
id-1377_gender-M_age-20	1	4	1	7	29	id-1377_gender-M_age-20	dominance	0.5025	0.81
id-1270_gender-F_age-30	1	4	1	7	30	id-1270_gender-F_age-30	dominance	0.1399999999999999	0.818
id-1367_gender-M_age-20	1	4	1	7	31	id-1367_gender-M_age-20	dominance	0.6225	0.76
id-1302_gender-F_age-30	1	4	1	7	32	id-1302_gender-F_age-30	dominance	-0.5125	0.826
id-1269_gender-F_age-23	1	4	1	7	33	id-1269_gender-F_age-23	dominance	0.6299999999999999	0.8009999999999999
id-1355_gender-F_age-19	1	4	1	7	34	id-1355_gender-F_age-19	dominance	-0.69	1.018
id-1291_gender-F_age-24	1	4	1	7	35	id-1291_gender-F_age-24	dominance	0.24750000000000005	0.7509999999999999
id-1274_gender-F_age-33	1	4	1	7	36	id-1274_gender-F_age-33	dominance	0.7	0.818
id-1360_gender-F_age-20	1	4	1	7	37	id-1360_gender-F_age-20	dominance	-0.42500000000000004	0.851
id-1311_gender-F_age-22	1	4	1	7	38	id-1311_gender-F_age-22	dominance	-0.2925	0.626
id-1356_gender-F_age-20	1	4	1	7	39	id-1356_gender-F_age-20	dominance	-0.21499999999999997	0.927
id-1280_gender-M_age-18	1	4	1	7	40	id-1280_gender-M_age-18	dominance	-0.69	2.7680000000000002
id-1266_gender-M_age-21	1	4	1	7	41	id-1266_gender-M_age-21	dominance	0.4575	2.7430000000000003
id-1309_gender-M_age-22	1	4	1	7	42	id-1309_gender-M_age-22	dominance	-0.5125	0.884
id-1273_gender-F_age-20	1	4	1	7	43	id-1273_gender-F_age-20	dominance	0.18500000000000005	0.843
id-1347_gender-F_age-27	1	4	1	7	44	id-1347_gender-F_age-27	dominance	-0.6675	1.143
id-1339_gender-F_age-30	1	4	1	7	45	id-1339_gender-F_age-30	dominance	-0.77	1.8430000000000002
id-1376_gender-F_age-19	1	4	1	7	46	id-1376_gender-F_age-19	dominance	0.3174999999999999	3.335
id-1358_gender-F_age-32	1	4	1	7	47	id-1358_gender-F_age-32	dominance	0.1775	0.659
id-1363_gender-M_age-19	1	4	1	7	48	id-1363_gender-M_age-19	dominance	-0.3325	0.626
id-1362_gender-F_age-24	1	4	1	7	49	id-1362_gender-F_age-24	dominance	0.0	1.2009999999999998
id-1285_gender-F_age-19	1	4	1	7	50	id-1285_gender-F_age-19	dominance	-0.49249999999999994	0.9179999999999999
id-1380_gender-F_age-21	1	4	1	8	1	id-1380_gender-F_age-21	attractiveness	-0.265	1.9180000000000001
id-1323_gender-F_age-23	1	4	1	8	2	id-1323_gender-F_age-23	attractiveness	-0.4675	0.8009999999999999
id-1311_gender-F_age-22	1	4	1	8	3	id-1311_gender-F_age-22	attractiveness	0.4525000000000001	0.868
id-1264_gender-F_age-26	1	4	1	8	4	id-1264_gender-F_age-26	attractiveness	-0.51	0.5760000000000001
id-1297_gender-F_age-22	1	4	1	8	5	id-1297_gender-F_age-22	attractiveness	-0.2849999999999999	0.743
id-1280_gender-M_age-18	1	4	1	8	6	id-1280_gender-M_age-18	attractiveness	-0.585	1.085
id-1296_gender-F_age-23	1	4	1	8	7	id-1296_gender-F_age-23	attractiveness	-0.26249999999999996	0.851
id-1363_gender-M_age-19	1	4	1	8	8	id-1363_gender-M_age-19	attractiveness	0.11499999999999999	0.701
id-1274_gender-F_age-33	1	4	1	8	9	id-1274_gender-F_age-33	attractiveness	-0.48	0.743
id-1377_gender-M_age-20	1	4	1	8	10	id-1377_gender-M_age-20	attractiveness	0.44500000000000006	0.843
id-1310_gender-F_age-28	1	4	1	8	11	id-1310_gender-F_age-28	attractiveness	0.0	1.01
id-1309_gender-M_age-22	1	4	1	8	12	id-1309_gender-M_age-22	attractiveness	-0.63	1.209
id-1293_gender-F_age-31	1	4	1	8	13	id-1293_gender-F_age-31	attractiveness	-0.38249999999999995	1.485
id-1356_gender-F_age-20	1	4	1	8	14	id-1356_gender-F_age-20	attractiveness	-0.36750000000000005	1.2009999999999998
id-1376_gender-F_age-19	1	4	1	8	15	id-1376_gender-F_age-19	attractiveness	0.3999999999999999	0.9259999999999999
id-1360_gender-F_age-20	1	4	1	8	16	id-1360_gender-F_age-20	attractiveness	0.1499999999999999	0.8009999999999999
id-1315_gender-M_age-16	1	4	1	8	17	id-1315_gender-M_age-16	attractiveness	-0.89	1.3769999999999998
id-1291_gender-F_age-24	1	4	1	8	18	id-1291_gender-F_age-24	attractiveness	0.09499999999999997	0.693
id-1370_gender-M_age-19	1	4	1	8	19	id-1370_gender-M_age-19	attractiveness	0.405	0.7090000000000001
id-1347_gender-F_age-27	1	4	1	8	20	id-1347_gender-F_age-27	attractiveness	-0.6225	1.226
id-1361_gender-F_age-19	1	4	1	8	21	id-1361_gender-F_age-19	attractiveness	0.5150000000000001	1.2930000000000001
id-1358_gender-F_age-32	1	4	1	8	22	id-1358_gender-F_age-32	attractiveness	-0.030000000000000027	1.0090000000000001
id-1355_gender-F_age-19	1	4	1	8	23	id-1355_gender-F_age-19	attractiveness	-0.47	1.068
id-1378_gender-F_age-19	1	4	1	8	24	id-1378_gender-F_age-19	attractiveness	0.5375000000000001	1.026
id-1306_gender-F_age-21	1	4	1	8	25	id-1306_gender-F_age-21	attractiveness	-0.35250000000000004	0.6509999999999999
id-1344_gender-M_age-25	1	4	1	8	26	id-1344_gender-M_age-25	attractiveness	-0.6925	0.693
id-1335_gender-M_age-23	1	4	1	8	27	id-1335_gender-M_age-23	attractiveness	0.25249999999999995	0.584
id-1318_gender-M_age-35	1	4	1	8	28	id-1318_gender-M_age-35	attractiveness	-0.6675	0.752
id-1339_gender-F_age-30	1	4	1	8	29	id-1339_gender-F_age-30	attractiveness	-0.21250000000000002	0.509
id-1295_gender-F_age-26	1	4	1	8	30	id-1295_gender-F_age-26	attractiveness	-0.2975	1.726
id-1269_gender-F_age-23	1	4	1	8	31	id-1269_gender-F_age-23	attractiveness	0.125	0.9179999999999999
id-1345_gender-M_age-18	1	4	1	8	32	id-1345_gender-M_age-18	attractiveness	0.0	3.593
id-1373_gender-F_age-30	1	4	1	8	33	id-1373_gender-F_age-30	attractiveness	0.3999999999999999	0.726
id-1285_gender-F_age-19	1	4	1	8	34	id-1285_gender-F_age-19	attractiveness	-0.18500000000000005	2.935
id-1279_gender-F_age-19	1	4	1	8	35	id-1279_gender-F_age-19	attractiveness	0.345	0.818
id-1366_gender-F_age-24	1	4	1	8	36	id-1366_gender-F_age-24	attractiveness	-0.4025000000000001	1.376
id-1342_gender-M_age-19	1	4	1	8	37	id-1342_gender-M_age-19	attractiveness	-0.78	1.2930000000000001
id-1290_gender-F_age-23	1	4	1	8	38	id-1290_gender-F_age-23	attractiveness	-0.4425	1.2009999999999998
id-1341_gender-M_age-19	1	4	1	8	39	id-1341_gender-M_age-19	attractiveness	-0.0024999999999999467	1.368
id-1354_gender-F_age-23	1	4	1	8	40	id-1354_gender-F_age-23	attractiveness	-0.5125	0.743
id-1307_gender-F_age-22	1	4	1	8	41	id-1307_gender-F_age-22	attractiveness	-0.8675	1.651
id-1367_gender-M_age-20	1	4	1	8	42	id-1367_gender-M_age-20	attractiveness	0.20750000000000002	0.601
id-1362_gender-F_age-24	1	4	1	8	43	id-1362_gender-F_age-24	attractiveness	0.3274999999999999	1.01
id-1294_gender-F_age-26	1	4	1	8	44	id-1294_gender-F_age-26	attractiveness	0.2749999999999999	3.31
id-1266_gender-M_age-21	1	4	1	8	45	id-1266_gender-M_age-21	attractiveness	0.4675	0.7340000000000001
id-1270_gender-F_age-30	1	4	1	8	46	id-1270_gender-F_age-30	attractiveness	-0.0050000000000000044	1.9180000000000001
id-1302_gender-F_age-30	1	4	1	8	47	id-1302_gender-F_age-30	attractiveness	-0.1925	2.085
id-1289_gender-F_age-20	1	4	1	8	48	id-1289_gender-F_age-20	attractiveness	-0.4075	3.935
id-1273_gender-F_age-20	1	4	1	8	49	id-1273_gender-F_age-20	attractiveness	0.5475000000000001	1.401
id-1260_gender-F_age-22	1	4	1	8	50	id-1260_gender-F_age-22	attractiveness	0.45500000000000007	0.6759999999999999
id-1307_gender-F_age-22	2	4	2	1	1	id-1307_gender-F_age-22	attractiveness	0.4099999999999999	1.21
id-1363_gender-M_age-19	2	4	2	1	2	id-1363_gender-M_age-19	attractiveness	0.4624999999999999	1.126
id-1373_gender-F_age-30	2	4	2	1	3	id-1373_gender-F_age-30	attractiveness	-0.07999999999999996	1.835
id-1264_gender-F_age-26	2	4	2	1	4	id-1264_gender-F_age-26	attractiveness	-0.275	0.893
id-1370_gender-M_age-19	2	4	2	1	5	id-1370_gender-M_age-19	attractiveness	0.36749999999999994	1.16
id-1345_gender-M_age-18	2	4	2	1	6	id-1345_gender-M_age-18	attractiveness	-0.5275000000000001	0.976
id-1311_gender-F_age-22	2	4	2	1	7	id-1311_gender-F_age-22	attractiveness	0.27	0.9259999999999999
id-1323_gender-F_age-23	2	4	2	1	8	id-1323_gender-F_age-23	attractiveness	-0.52	1.3430000000000002
id-1290_gender-F_age-23	2	4	2	1	9	id-1290_gender-F_age-23	attractiveness	-0.17000000000000004	0.76
id-1306_gender-F_age-21	2	4	2	1	10	id-1306_gender-F_age-21	attractiveness	-0.76	1.193
id-1260_gender-F_age-22	2	4	2	1	11	id-1260_gender-F_age-22	attractiveness	0.18500000000000005	0.851
id-1358_gender-F_age-32	2	4	2	1	12	id-1358_gender-F_age-32	attractiveness	-0.21999999999999997	0.976
id-1274_gender-F_age-33	2	4	2	1	13	id-1274_gender-F_age-33	attractiveness	-0.4125	2.201
id-1280_gender-M_age-18	2	4	2	1	14	id-1280_gender-M_age-18	attractiveness	-0.57	2.51
id-1347_gender-F_age-27	2	4	2	1	15	id-1347_gender-F_age-27	attractiveness	-0.7175	0.951
id-1361_gender-F_age-19	2	4	2	1	16	id-1361_gender-F_age-19	attractiveness	0.2250000000000001	0.9179999999999999
id-1273_gender-F_age-20	2	4	2	1	17	id-1273_gender-F_age-20	attractiveness	0.5125	1.1179999999999999
id-1380_gender-F_age-21	2	4	2	1	18	id-1380_gender-F_age-21	attractiveness	-0.31499999999999995	0.81
id-1362_gender-F_age-24	2	4	2	1	19	id-1362_gender-F_age-24	attractiveness	-0.4099999999999999	1.0090000000000001
id-1342_gender-M_age-19	2	4	2	1	20	id-1342_gender-M_age-19	attractiveness	-0.6725	1.143
id-1366_gender-F_age-24	2	4	2	1	21	id-1366_gender-F_age-24	attractiveness	-0.24250000000000005	0.659
id-1309_gender-M_age-22	2	4	2	1	22	id-1309_gender-M_age-22	attractiveness	-0.6125	1.001
id-1279_gender-F_age-19	2	4	2	1	23	id-1279_gender-F_age-19	attractiveness	0.42500000000000004	1.026
id-1302_gender-F_age-30	2	4	2	1	24	id-1302_gender-F_age-30	attractiveness	-0.04749999999999999	3.1430000000000002
id-1339_gender-F_age-30	2	4	2	1	25	id-1339_gender-F_age-30	attractiveness	0.44500000000000006	0.985
id-1354_gender-F_age-23	2	4	2	1	26	id-1354_gender-F_age-23	attractiveness	-0.36	3.31
id-1266_gender-M_age-21	2	4	2	1	27	id-1266_gender-M_age-21	attractiveness	0.08250000000000002	1.726
id-1335_gender-M_age-23	2	4	2	1	28	id-1335_gender-M_age-23	attractiveness	-0.14	0.7090000000000001
id-1376_gender-F_age-19	2	4	2	1	29	id-1376_gender-F_age-19	attractiveness	0.25	0.726
id-1291_gender-F_age-24	2	4	2	1	30	id-1291_gender-F_age-24	attractiveness	0.2825	0.759
id-1378_gender-F_age-19	2	4	2	1	31	id-1378_gender-F_age-19	attractiveness	-0.13249999999999995	0.501
id-1285_gender-F_age-19	2	4	2	1	32	id-1285_gender-F_age-19	attractiveness	-0.18999999999999995	0.81
id-1269_gender-F_age-23	2	4	2	1	33	id-1269_gender-F_age-23	attractiveness	-0.3400000000000001	1.126
id-1270_gender-F_age-30	2	4	2	1	34	id-1270_gender-F_age-30	attractiveness	-0.43500000000000005	1.0590000000000002
id-1289_gender-F_age-20	2	4	2	1	35	id-1289_gender-F_age-20	attractiveness	-0.22999999999999998	0.768
id-1310_gender-F_age-28	2	4	2	1	36	id-1310_gender-F_age-28	attractiveness	0.24249999999999994	1.193
id-1356_gender-F_age-20	2	4	2	1	37	id-1356_gender-F_age-20	attractiveness	-0.2975	0.6509999999999999
id-1318_gender-M_age-35	2	4	2	1	38	id-1318_gender-M_age-35	attractiveness	-0.39749999999999996	1.026
id-1315_gender-M_age-16	2	4	2	1	39	id-1315_gender-M_age-16	attractiveness	-0.915	1.11
id-1377_gender-M_age-20	2	4	2	1	40	id-1377_gender-M_age-20	attractiveness	0.17500000000000004	0.726
id-1293_gender-F_age-31	2	4	2	1	41	id-1293_gender-F_age-31	attractiveness	-0.1725	0.8759999999999999
id-1341_gender-M_age-19	2	4	2	1	42	id-1341_gender-M_age-19	attractiveness	0.28	1.268
id-1296_gender-F_age-23	2	4	2	1	43	id-1296_gender-F_age-23	attractiveness	-0.25	1.4509999999999998
id-1294_gender-F_age-26	2	4	2	1	44	id-1294_gender-F_age-26	attractiveness	0.49	1.268
id-1297_gender-F_age-22	2	4	2	1	45	id-1297_gender-F_age-22	attractiveness	0.12749999999999995	0.701
id-1367_gender-M_age-20	2	4	2	1	46	id-1367_gender-M_age-20	attractiveness	0.3999999999999999	1.001
id-1295_gender-F_age-26	2	4	2	1	47	id-1295_gender-F_age-26	attractiveness	-0.3275	0.868
id-1355_gender-F_age-19	2	4	2	1	48	id-1355_gender-F_age-19	attractiveness	-0.695	1.835
id-1360_gender-F_age-20	2	4	2	1	49	id-1360_gender-F_age-20	attractiveness	-0.15249999999999997	0.6679999999999999
id-1344_gender-M_age-25	2	4	2	1	50	id-1344_gender-M_age-25	attractiveness	-0.5375	1.51
id-1264_gender-F_age-26	2	4	2	2	1	id-1264_gender-F_age-26	trustworthiness	-0.09999999999999998	2.385
id-1377_gender-M_age-20	2	4	2	2	2	id-1377_gender-M_age-20	trustworthiness	-0.38249999999999995	0.634
id-1361_gender-F_age-19	2	4	2	2	3	id-1361_gender-F_age-19	trustworthiness	0.18500000000000005	0.626
id-1318_gender-M_age-35	2	4	2	2	4	id-1318_gender-M_age-35	trustworthiness	-0.555	0.81
id-1306_gender-F_age-21	2	4	2	2	5	id-1306_gender-F_age-21	trustworthiness	-0.10499999999999998	0.735
id-1280_gender-M_age-18	2	4	2	2	6	id-1280_gender-M_age-18	trustworthiness	-0.22999999999999998	1.085
id-1378_gender-F_age-19	2	4	2	2	7	id-1378_gender-F_age-19	trustworthiness	0.3374999999999999	0.6509999999999999
id-1373_gender-F_age-30	2	4	2	2	8	id-1373_gender-F_age-30	trustworthiness	0.20500000000000007	0.601
id-1285_gender-F_age-19	2	4	2	2	9	id-1285_gender-F_age-19	trustworthiness	-0.025000000000000022	0.851
id-1290_gender-F_age-23	2	4	2	2	10	id-1290_gender-F_age-23	trustworthiness	-0.5925	0.9259999999999999
id-1296_gender-F_age-23	2	4	2	2	11	id-1296_gender-F_age-23	trustworthiness	-0.0050000000000000044	2.843
id-1270_gender-F_age-30	2	4	2	2	12	id-1270_gender-F_age-30	trustworthiness	0.3400000000000001	1.376
id-1380_gender-F_age-21	2	4	2	2	13	id-1380_gender-F_age-21	trustworthiness	0.15749999999999997	3.11
id-1360_gender-F_age-20	2	4	2	2	14	id-1360_gender-F_age-20	trustworthiness	0.45500000000000007	0.7509999999999999
id-1269_gender-F_age-23	2	4	2	2	15	id-1269_gender-F_age-23	trustworthiness	0.3025	0.785
id-1315_gender-M_age-16	2	4	2	2	16	id-1315_gender-M_age-16	trustworthiness	-0.645	0.826
id-1294_gender-F_age-26	2	4	2	2	17	id-1294_gender-F_age-26	trustworthiness	0.07250000000000001	0.5760000000000001
id-1266_gender-M_age-21	2	4	2	2	18	id-1266_gender-M_age-21	trustworthiness	-0.48	0.951
id-1367_gender-M_age-20	2	4	2	2	19	id-1367_gender-M_age-20	trustworthiness	0.17500000000000004	0.951
id-1302_gender-F_age-30	2	4	2	2	20	id-1302_gender-F_age-30	trustworthiness	-0.2975	2.6510000000000002
id-1335_gender-M_age-23	2	4	2	2	21	id-1335_gender-M_age-23	trustworthiness	0.4624999999999999	0.7929999999999999
id-1310_gender-F_age-28	2	4	2	2	22	id-1310_gender-F_age-28	trustworthiness	0.21750000000000003	0.61
id-1366_gender-F_age-24	2	4	2	2	23	id-1366_gender-F_age-24	trustworthiness	-0.5075	1.318
id-1339_gender-F_age-30	2	4	2	2	24	id-1339_gender-F_age-30	trustworthiness	0.4099999999999999	0.634
id-1297_gender-F_age-22	2	4	2	2	25	id-1297_gender-F_age-22	trustworthiness	0.19500000000000006	0.851
id-1355_gender-F_age-19	2	4	2	2	26	id-1355_gender-F_age-19	trustworthiness	0.0	2.576
id-1309_gender-M_age-22	2	4	2	2	27	id-1309_gender-M_age-22	trustworthiness	-0.65	2.2430000000000003
id-1358_gender-F_age-32	2	4	2	2	28	id-1358_gender-F_age-32	trustworthiness	0.3474999999999999	1.051
id-1347_gender-F_age-27	2	4	2	2	29	id-1347_gender-F_age-27	trustworthiness	-0.0050000000000000044	2.043
id-1323_gender-F_age-23	2	4	2	2	30	id-1323_gender-F_age-23	trustworthiness	0.3225	1.385
id-1260_gender-F_age-22	2	4	2	2	31	id-1260_gender-F_age-22	trustworthiness	0.4850000000000001	1.01
id-1273_gender-F_age-20	2	4	2	2	32	id-1273_gender-F_age-20	trustworthiness	0.595	1.385
id-1376_gender-F_age-19	2	4	2	2	33	id-1376_gender-F_age-19	trustworthiness	0.2350000000000001	1.226
id-1307_gender-F_age-22	2	4	2	2	34	id-1307_gender-F_age-22	trustworthiness	0.08000000000000007	3.96
id-1341_gender-M_age-19	2	4	2	2	35	id-1341_gender-M_age-19	trustworthiness	0.4375	1.276
id-1354_gender-F_age-23	2	4	2	2	36	id-1354_gender-F_age-23	trustworthiness	-0.4575	0.9009999999999999
id-1363_gender-M_age-19	2	4	2	2	37	id-1363_gender-M_age-19	trustworthiness	0.4850000000000001	0.9179999999999999
id-1344_gender-M_age-25	2	4	2	2	38	id-1344_gender-M_age-25	trustworthiness	-0.655	1.351
id-1311_gender-F_age-22	2	4	2	2	39	id-1311_gender-F_age-22	trustworthiness	0.3174999999999999	2.251
id-1291_gender-F_age-24	2	4	2	2	40	id-1291_gender-F_age-24	trustworthiness	0.45999999999999996	2.31
id-1362_gender-F_age-24	2	4	2	2	41	id-1362_gender-F_age-24	trustworthiness	0.5350000000000001	0.7509999999999999
id-1345_gender-M_age-18	2	4	2	2	42	id-1345_gender-M_age-18	trustworthiness	-0.4025000000000001	1.318
id-1295_gender-F_age-26	2	4	2	2	43	id-1295_gender-F_age-26	trustworthiness	-0.235	1.46
id-1279_gender-F_age-19	2	4	2	2	44	id-1279_gender-F_age-19	trustworthiness	0.48	1.4680000000000002
id-1342_gender-M_age-19	2	4	2	2	45	id-1342_gender-M_age-19	trustworthiness	-0.53	1.46
id-1356_gender-F_age-20	2	4	2	2	46	id-1356_gender-F_age-20	trustworthiness	0.3374999999999999	0.56
id-1289_gender-F_age-20	2	4	2	2	47	id-1289_gender-F_age-20	trustworthiness	-0.23250000000000004	5.935
id-1274_gender-F_age-33	2	4	2	2	48	id-1274_gender-F_age-33	trustworthiness	-0.675	1.026
id-1293_gender-F_age-31	2	4	2	2	49	id-1293_gender-F_age-31	trustworthiness	-0.10499999999999998	3.3680000000000003
id-1370_gender-M_age-19	2	4	2	2	50	id-1370_gender-M_age-19	trustworthiness	0.7324999999999999	1.109
id-1380_gender-F_age-21	2	4	2	5	1	id-1380_gender-F_age-21	arousal	0.42391148668003437	3.310675977616484
id-1380_gender-F_age-21	2	4	2	5	1	id-1380_gender-F_age-21	valence	0.4402263984940868	3.310675977616484
id-1295_gender-F_age-26	2	4	2	5	2	id-1295_gender-F_age-26	arousal	0.41304169906289645	0.8020415950004463
id-1295_gender-F_age-26	2	4	2	5	2	id-1295_gender-F_age-26	valence	0.0	0.8020415950004463
id-1311_gender-F_age-22	2	4	2	5	3	id-1311_gender-F_age-22	arousal	0.6657642611613537	0.9621154539267992
id-1311_gender-F_age-22	2	4	2	5	3	id-1311_gender-F_age-22	valence	0.4483787392069404	0.9621154539267992
id-1366_gender-F_age-24	2	4	2	5	4	id-1366_gender-F_age-24	arousal	0.5991868120063838	1.885465536425272
id-1366_gender-F_age-24	2	4	2	5	4	id-1366_gender-F_age-24	valence	-0.29891915947129355	1.885465536425272
id-1289_gender-F_age-20	2	4	2	5	5	id-1289_gender-F_age-20	arousal	0.3029850994393747	1.5604074737939297
id-1289_gender-F_age-20	2	4	2	5	5	id-1289_gender-F_age-20	valence	0.19565617710848307	1.5604074737939297
id-1297_gender-F_age-22	2	4	2	5	6	id-1297_gender-F_age-22	arousal	0.5067936172607113	2.477230453253924
id-1297_gender-F_age-22	2	4	2	5	6	id-1297_gender-F_age-22	valence	0.0	2.477230453253924
id-1266_gender-M_age-21	2	4	2	5	7	id-1266_gender-M_age-21	arousal	0.33695318574293076	3.2023987548905097
id-1266_gender-M_age-21	2	4	2	5	7	id-1266_gender-M_age-21	valence	-0.23370043376846586	3.2023987548905097
id-1339_gender-F_age-30	2	4	2	5	8	id-1339_gender-F_age-30	arousal	0.7078846881777633	1.5854331167392957
id-1339_gender-F_age-30	2	4	2	5	8	id-1339_gender-F_age-30	valence	0.5081625711011989	1.5854331167392957
id-1306_gender-F_age-21	2	4	2	5	9	id-1306_gender-F_age-21	arousal	0.2730931834922453	5.219290497892871
id-1306_gender-F_age-21	2	4	2	5	9	id-1306_gender-F_age-21	valence	-0.0054348938085689745	5.219290497892871
id-1279_gender-F_age-19	2	4	2	5	10	id-1279_gender-F_age-19	arousal	0.5896757478413881	2.6939128870362765
id-1279_gender-F_age-19	2	4	2	5	10	id-1279_gender-F_age-19	valence	0.6929489605925442	2.6939128870362765
id-1335_gender-M_age-23	2	4	2	5	11	id-1335_gender-M_age-23	arousal	0.8029953298277204	2.1688205331920467
id-1335_gender-M_age-23	2	4	2	5	11	id-1335_gender-M_age-23	valence	0.5380544870483285	2.1688205331920467
id-1377_gender-M_age-20	2	4	2	5	12	id-1377_gender-M_age-20	arousal	0.3763561658550558	2.3455971712164683
id-1377_gender-M_age-20	2	4	2	5	12	id-1377_gender-M_age-20	valence	0.105980429267095	2.3455971712164683
id-1354_gender-F_age-23	2	4	2	5	13	id-1354_gender-F_age-23	arousal	0.7241893696034702	3.335637324536947
id-1354_gender-F_age-23	2	4	2	5	13	id-1354_gender-F_age-23	valence	-0.42120427016409545	3.335637324536947
id-1363_gender-M_age-19	2	4	2	5	14	id-1363_gender-M_age-19	arousal	0.1752650949380038	4.144282091112018
id-1363_gender-M_age-19	2	4	2	5	14	id-1363_gender-M_age-19	valence	0.09239319474567256	4.144282091112018
id-1358_gender-F_age-32	2	4	2	5	15	id-1358_gender-F_age-32	arousal	0.6603293673527848	2.718813560242779
id-1358_gender-F_age-32	2	4	2	5	15	id-1358_gender-F_age-32	valence	0.42392171706838	2.718813560242779
id-1367_gender-M_age-20	2	4	2	5	16	id-1367_gender-M_age-20	arousal	0.31113744015222816	0.8520509224517809
id-1367_gender-M_age-20	2	4	2	5	16	id-1367_gender-M_age-20	valence	0.3369634161312764	0.8520509224517809
id-1285_gender-F_age-19	2	4	2	5	17	id-1285_gender-F_age-19	arousal	0.33287701538650405	2.543692318466583
id-1285_gender-F_age-19	2	4	2	5	17	id-1285_gender-F_age-19	valence	-0.07880596022425011	2.543692318466583
id-1291_gender-F_age-24	2	4	2	5	18	id-1291_gender-F_age-24	arousal	0.7201131992470434	1.735451439597
id-1291_gender-F_age-24	2	4	2	5	18	id-1291_gender-F_age-24	valence	0.5842510844211647	1.735451439597
id-1323_gender-F_age-23	2	4	2	5	19	id-1323_gender-F_age-23	arousal	0.23776637373654702	2.9273563587562417
id-1323_gender-F_age-23	2	4	2	5	19	id-1323_gender-F_age-23	valence	0.09782808855424154	2.9273563587562417
id-1270_gender-F_age-30	2	4	2	5	20	id-1270_gender-F_age-30	arousal	0.5081523407128534	3.394033811860936
id-1270_gender-F_age-30	2	4	2	5	20	id-1270_gender-F_age-30	valence	-0.024457022138560384	3.394033811860936
id-1309_gender-M_age-22	2	4	2	5	21	id-1309_gender-M_age-22	arousal	0.5013587234521423	4.6942521768578445
id-1309_gender-M_age-22	2	4	2	5	21	id-1309_gender-M_age-22	valence	-0.4375089515898024	4.6942521768578445
id-1264_gender-F_age-26	2	4	2	5	22	id-1264_gender-F_age-26	arousal	0.7663097966198797	0.918844531004197
id-1264_gender-F_age-26	2	4	2	5	22	id-1264_gender-F_age-26	valence	-0.5543591684740353	0.918844531004197
id-1360_gender-F_age-20	2	4	2	5	23	id-1360_gender-F_age-20	arousal	0.20923318124155987	3.460551219179252
id-1360_gender-F_age-20	2	4	2	5	23	id-1360_gender-F_age-20	valence	-0.0054348938085689745	3.460551219179252
id-1376_gender-F_age-19	2	4	2	5	24	id-1376_gender-F_age-19	arousal	0.7595161793591685	2.3523011637885247
id-1376_gender-F_age-19	2	4	2	5	24	id-1376_gender-F_age-19	valence	0.6114255534640095	2.3523011637885247
id-1318_gender-M_age-35	2	4	2	5	25	id-1318_gender-M_age-35	arousal	0.7771795842370177	2.7105878950810616
id-1318_gender-M_age-35	2	4	2	5	25	id-1318_gender-M_age-35	valence	-0.5706638498997423	2.7105878950810616
id-1307_gender-F_age-22	2	4	2	5	26	id-1307_gender-F_age-22	arousal	0.20108084052870645	4.510924588912985
id-1307_gender-F_age-22	2	4	2	5	26	id-1307_gender-F_age-22	valence	-0.01902212832999141	4.510924588912985
id-1315_gender-M_age-16	2	4	2	5	27	id-1315_gender-M_age-16	arousal	0.5095110641649957	1.0605206710210948
id-1315_gender-M_age-16	2	4	2	5	27	id-1315_gender-M_age-16	valence	-0.7282757703482424	1.0605206710210948
id-1273_gender-F_age-20	2	4	2	5	28	id-1273_gender-F_age-20	arousal	0.650818303187789	1.5937599047570077
id-1273_gender-F_age-20	2	4	2	5	28	id-1273_gender-F_age-20	valence	0.5353370401440439	1.5937599047570077
id-1290_gender-F_age-23	2	4	2	5	29	id-1290_gender-F_age-23	arousal	0.8709315024348325	1.327220884315011
id-1290_gender-F_age-23	2	4	2	5	29	id-1290_gender-F_age-23	valence	-0.6331651286982856	1.327220884315011
id-1342_gender-M_age-19	2	4	2	5	30	id-1342_gender-M_age-19	arousal	0.2513536082579695	2.4021308849728484
id-1342_gender-M_age-19	2	4	2	5	30	id-1342_gender-M_age-19	valence	-0.2717446904284487	2.4021308849728484
id-1341_gender-M_age-19	2	4	2	5	31	id-1341_gender-M_age-19	arousal	0.34646424990792646	0.7186004475970549
id-1341_gender-M_age-19	2	4	2	5	31	id-1341_gender-M_age-19	valence	0.4972927834840611	0.7186004475970549
id-1347_gender-F_age-27	2	4	2	5	32	id-1347_gender-F_age-27	arousal	0.6820689425870606	0.8269292882578156
id-1347_gender-F_age-27	2	4	2	5	32	id-1347_gender-F_age-27	valence	-0.42120427016409545	0.8269292882578156
id-1378_gender-F_age-19	2	4	2	5	33	id-1378_gender-F_age-19	arousal	0.6331548983099399	4.110770580312419
id-1378_gender-F_age-19	2	4	2	5	33	id-1378_gender-F_age-19	valence	0.4891404427712077	4.110770580312419
id-1294_gender-F_age-26	2	4	2	5	34	id-1294_gender-F_age-26	arousal	0.4932063827392888	1.4104045457593202
id-1294_gender-F_age-26	2	4	2	5	34	id-1294_gender-F_age-26	valence	0.92664939436101	1.4104045457593202
id-1302_gender-F_age-30	2	4	2	5	35	id-1302_gender-F_age-30	arousal	0.6644055377092115	1.6271497662701222
id-1302_gender-F_age-30	2	4	2	5	35	id-1302_gender-F_age-30	valence	-0.5190323587183371	1.6271497662701222
id-1345_gender-M_age-18	2	4	2	5	36	id-1345_gender-M_age-18	arousal	0.6521770266399313	1.6189295345752726
id-1345_gender-M_age-18	2	4	2	5	36	id-1345_gender-M_age-18	valence	0.4565310799197938	1.6189295345752726
id-1269_gender-F_age-23	2	4	2	5	37	id-1269_gender-F_age-23	arousal	0.2975502056308057	5.735992975131012
id-1269_gender-F_age-23	2	4	2	5	37	id-1269_gender-F_age-23	valence	-0.3097889470884315	5.735992975131012
id-1310_gender-F_age-28	2	4	2	5	38	id-1310_gender-F_age-28	arousal	0.2717344600401031	4.1692524938102915
id-1310_gender-F_age-28	2	4	2	5	38	id-1310_gender-F_age-28	valence	-0.01902212832999141	4.1692524938102915
id-1370_gender-M_age-19	2	4	2	5	39	id-1370_gender-M_age-19	arousal	0.5122285110692802	2.6856745437848986
id-1370_gender-M_age-19	2	4	2	5	39	id-1370_gender-M_age-19	valence	0.33424596922699185	2.6856745437848986
id-1274_gender-F_age-33	2	4	2	5	40	id-1274_gender-F_age-33	arousal	0.7853319249498711	3.0523490386685808
id-1274_gender-F_age-33	2	4	2	5	40	id-1274_gender-F_age-33	valence	-0.4891404427712077	3.0523490386685808
id-1344_gender-M_age-25	2	4	2	5	41	id-1344_gender-M_age-25	arousal	0.23640765028440475	0.8271010461839978
id-1344_gender-M_age-25	2	4	2	5	41	id-1344_gender-M_age-25	valence	-0.4103344825469576	0.8271010461839978
id-1356_gender-F_age-20	2	4	2	5	42	id-1356_gender-F_age-20	arousal	0.656253196996358	1.3437712244799511
id-1356_gender-F_age-20	2	4	2	5	42	id-1356_gender-F_age-20	valence	0.5299021463354749	1.3437712244799511
id-1296_gender-F_age-23	2	4	2	5	43	id-1296_gender-F_age-23	arousal	0.5081523407128534	1.727076354095061
id-1296_gender-F_age-23	2	4	2	5	43	id-1296_gender-F_age-23	valence	0.00815234071285346	1.727076354095061
id-1362_gender-F_age-24	2	4	2	5	44	id-1362_gender-F_age-24	arousal	0.7880493718541556	1.060430113239363
id-1362_gender-F_age-24	2	4	2	5	44	id-1362_gender-F_age-24	valence	0.50272767729263	1.060430113239363
id-1355_gender-F_age-19	2	4	2	5	45	id-1355_gender-F_age-19	arousal	0.4986412765478578	3.0606341701072783
id-1355_gender-F_age-19	2	4	2	5	45	id-1355_gender-F_age-19	valence	0.0	3.0606341701072783
id-1260_gender-F_age-22	2	4	2	5	46	id-1260_gender-F_age-22	arousal	0.3532578671686377	4.702492029406129
id-1260_gender-F_age-22	2	4	2	5	46	id-1260_gender-F_age-22	valence	0.5271846994311905	4.702492029406129
id-1361_gender-F_age-19	2	4	2	5	47	id-1361_gender-F_age-19	arousal	0.701091070917052	0.8187818046471875
id-1361_gender-F_age-19	2	4	2	5	47	id-1361_gender-F_age-19	valence	0.4103344825469576	0.8187818046471875
id-1293_gender-F_age-31	2	4	2	5	48	id-1293_gender-F_age-31	arousal	0.7377766041248925	2.7688844669860373
id-1293_gender-F_age-31	2	4	2	5	48	id-1293_gender-F_age-31	valence	-0.5326195932397594	2.7688844669860373
id-1373_gender-F_age-30	2	4	2	5	49	id-1373_gender-F_age-30	arousal	0.5027174469042844	3.552382545048204
id-1373_gender-F_age-30	2	4	2	5	49	id-1373_gender-F_age-30	valence	0.4565310799197938	3.552382545048204
id-1280_gender-M_age-18	2	4	2	5	50	id-1280_gender-M_age-18	arousal	0.7758208607848754	8.569643160080433
id-1280_gender-M_age-18	2	4	2	5	50	id-1280_gender-M_age-18	valence	-0.4972927834840611	8.569643160080433
id-1355_gender-F_age-19	2	4	2	6	1	id-1355_gender-F_age-19	dominance	-0.65	0.7509999999999999
id-1358_gender-F_age-32	2	4	2	6	2	id-1358_gender-F_age-32	dominance	0.06000000000000005	0.626
id-1266_gender-M_age-21	2	4	2	6	3	id-1266_gender-M_age-21	dominance	0.21999999999999997	0.501
id-1270_gender-F_age-30	2	4	2	6	4	id-1270_gender-F_age-30	dominance	-0.37749999999999995	0.851
id-1279_gender-F_age-19	2	4	2	6	5	id-1279_gender-F_age-19	dominance	-0.655	0.9009999999999999
id-1356_gender-F_age-20	2	4	2	6	6	id-1356_gender-F_age-20	dominance	-0.2875	0.584
id-1345_gender-M_age-18	2	4	2	6	7	id-1345_gender-M_age-18	dominance	0.22999999999999998	2.26
id-1285_gender-F_age-19	2	4	2	6	8	id-1285_gender-F_age-19	dominance	-0.345	0.759
id-1370_gender-M_age-19	2	4	2	6	9	id-1370_gender-M_age-19	dominance	-0.07250000000000001	0.7509999999999999
id-1335_gender-M_age-23	2	4	2	6	10	id-1335_gender-M_age-23	dominance	-0.19499999999999995	0.66
id-1315_gender-M_age-16	2	4	2	6	11	id-1315_gender-M_age-16	dominance	0.345	0.8009999999999999
id-1360_gender-F_age-20	2	4	2	6	12	id-1360_gender-F_age-20	dominance	0.41999999999999993	0.885
id-1311_gender-F_age-22	2	4	2	6	13	id-1311_gender-F_age-22	dominance	-0.6325	1.368
id-1293_gender-F_age-31	2	4	2	6	14	id-1293_gender-F_age-31	dominance	-0.7575	4.935
id-1318_gender-M_age-35	2	4	2	6	15	id-1318_gender-M_age-35	dominance	0.7375	1.093
id-1363_gender-M_age-19	2	4	2	6	16	id-1363_gender-M_age-19	dominance	0.0674999999999999	0.501
id-1339_gender-F_age-30	2	4	2	6	17	id-1339_gender-F_age-30	dominance	-0.3375	0.743
id-1297_gender-F_age-22	2	4	2	6	18	id-1297_gender-F_age-22	dominance	0.08250000000000002	0.5429999999999999
id-1309_gender-M_age-22	2	4	2	6	19	id-1309_gender-M_age-22	dominance	0.33000000000000007	5.319
id-1296_gender-F_age-23	2	4	2	6	20	id-1296_gender-F_age-23	dominance	0.014999999999999902	1.476
id-1264_gender-F_age-26	2	4	2	6	21	id-1264_gender-F_age-26	dominance	-0.5900000000000001	1.751
id-1302_gender-F_age-30	2	4	2	6	22	id-1302_gender-F_age-30	dominance	-0.12749999999999995	1.0090000000000001
id-1289_gender-F_age-20	2	4	2	6	23	id-1289_gender-F_age-20	dominance	-0.20750000000000002	1.218
id-1273_gender-F_age-20	2	4	2	6	24	id-1273_gender-F_age-20	dominance	0.12749999999999995	0.743
id-1307_gender-F_age-22	2	4	2	6	25	id-1307_gender-F_age-22	dominance	-0.4625	3.343
id-1295_gender-F_age-26	2	4	2	6	26	id-1295_gender-F_age-26	dominance	0.25249999999999995	1.16
id-1342_gender-M_age-19	2	4	2	6	27	id-1342_gender-M_age-19	dominance	0.6299999999999999	1.1340000000000001
id-1362_gender-F_age-24	2	4	2	6	28	id-1362_gender-F_age-24	dominance	-0.30500000000000005	1.56
id-1344_gender-M_age-25	2	4	2	6	29	id-1344_gender-M_age-25	dominance	-0.5225	2.968
id-1376_gender-F_age-19	2	4	2	6	30	id-1376_gender-F_age-19	dominance	-0.235	0.893
id-1347_gender-F_age-27	2	4	2	6	31	id-1347_gender-F_age-27	dominance	-0.9	0.951
id-1341_gender-M_age-19	2	4	2	6	32	id-1341_gender-M_age-19	dominance	0.27	1.46
id-1377_gender-M_age-20	2	4	2	6	33	id-1377_gender-M_age-20	dominance	0.4275	1.568
id-1260_gender-F_age-22	2	4	2	6	34	id-1260_gender-F_age-22	dominance	-0.745	1.035
id-1310_gender-F_age-28	2	4	2	6	35	id-1310_gender-F_age-28	dominance	0.4475	1.284
id-1274_gender-F_age-33	2	4	2	6	36	id-1274_gender-F_age-33	dominance	0.1499999999999999	0.893
id-1294_gender-F_age-26	2	4	2	6	37	id-1294_gender-F_age-26	dominance	0.0475000000000001	1.043
id-1373_gender-F_age-30	2	4	2	6	38	id-1373_gender-F_age-30	dominance	-0.345	0.993
id-1291_gender-F_age-24	2	4	2	6	39	id-1291_gender-F_age-24	dominance	-0.14500000000000002	0.809
id-1323_gender-F_age-23	2	4	2	6	40	id-1323_gender-F_age-23	dominance	0.0	4.043
id-1380_gender-F_age-21	2	4	2	6	41	id-1380_gender-F_age-21	dominance	-0.42000000000000004	4.152
id-1269_gender-F_age-23	2	4	2	6	42	id-1269_gender-F_age-23	dominance	0.44500000000000006	0.826
id-1354_gender-F_age-23	2	4	2	6	43	id-1354_gender-F_age-23	dominance	-0.3175	2.235
id-1290_gender-F_age-23	2	4	2	6	44	id-1290_gender-F_age-23	dominance	0.6100000000000001	0.935
id-1306_gender-F_age-21	2	4	2	6	45	id-1306_gender-F_age-21	dominance	-0.12749999999999995	1.6680000000000001
id-1280_gender-M_age-18	2	4	2	6	46	id-1280_gender-M_age-18	dominance	-0.2925	3.0010000000000003
id-1361_gender-F_age-19	2	4	2	6	47	id-1361_gender-F_age-19	dominance	-0.23250000000000004	2.7510000000000003
id-1366_gender-F_age-24	2	4	2	6	48	id-1366_gender-F_age-24	dominance	-0.765	3.752
id-1367_gender-M_age-20	2	4	2	6	49	id-1367_gender-M_age-20	dominance	0.38749999999999996	0.7929999999999999
id-1378_gender-F_age-19	2	4	2	6	50	id-1378_gender-F_age-19	dominance	-0.30500000000000005	2.7760000000000002
