	rep	session	run	block	trial	data_split	trial_type	rating_type	rating	rating_intensity	rating_RT
id-1344_AU1-66_AU12-66_AU24-33_AU27i-33	1	1	1	1	1	test_extra	id-1344_AU1-66_AU12-66_AU24-33_AU27i-33	valence	-0.04891404427712077		2.8438880706926284
id-1344_AU1-66_AU12-66_AU24-33_AU27i-33	1	1	1	1	1	test_extra	id-1344_AU1-66_AU12-66_AU24-33_AU27i-33	arousal	0.4402263984940868		2.8438880706926284
id-1296_AU12-66_AU6-66	1	1	1	1	2	train	id-1296_AU12-66_AU6-66	valence	0.20652596472562101		1.0104909954934556
id-1296_AU12-66_AU6-66	1	1	1	1	2	train	id-1296_AU12-66_AU6-66	arousal	0.19565617710848307		1.0104909954934556
id-1290_AU11-33_AU5-66	1	1	1	1	3	test_extra	id-1290_AU11-33_AU5-66	valence	-0.8723004562753204		3.560555426596693
id-1290_AU11-33_AU5-66	1	1	1	1	3	test_extra	id-1290_AU11-33_AU5-66	arousal	0.6521872570282768		3.560555426596693
id-1323_AU11-33_AU16Open-33_AU2-33_AU27i-100	1	1	1	1	4	train	id-1323_AU11-33_AU16Open-33_AU2-33_AU27i-100	valence	-0.7445804517739495		1.9106298793085443
id-1323_AU11-33_AU16Open-33_AU2-33_AU27i-100	1	1	1	1	4	train	id-1323_AU11-33_AU16Open-33_AU2-33_AU27i-100	arousal	0.41305192945124203		1.9106298793085443
id-1269_AU15-66_AU16Open-66_AU26-33_AU27i-100	1	1	1	1	5	test	id-1269_AU15-66_AU16Open-66_AU26-33_AU27i-100	valence	-0.024457022138560384		1.1853113385150211
id-1269_AU15-66_AU16Open-66_AU26-33_AU27i-100	1	1	1	1	5	test	id-1269_AU15-66_AU16Open-66_AU26-33_AU27i-100	arousal	0.5570766153783199		1.1853113385150211
id-1293_AU1-100_AU12-33_AU13-33_AU22-100	1	1	1	1	6	test_extra	id-1293_AU1-100_AU12-33_AU13-33_AU22-100	valence	0.3532680975569833		4.069035006508784
id-1293_AU1-100_AU12-33_AU13-33_AU22-100	1	1	1	1	6	test_extra	id-1293_AU1-100_AU12-33_AU13-33_AU22-100	arousal	0.0		4.069035006508784
id-1296_AU1-66_AU11-33	1	1	1	1	7	train	id-1296_AU1-66_AU11-33	valence	-0.2527225620984573		1.0102021195707491
id-1296_AU1-66_AU11-33	1	1	1	1	7	train	id-1296_AU1-66_AU11-33	arousal	-0.4103344825469576		1.0102021195707491
id-1373_AU15-33_AU16Open-33_AU2-33_AU4-100	1	1	1	1	8	test_extra	id-1373_AU15-33_AU16Open-33_AU2-33_AU4-100	valence	-0.41305192945124203		4.352565064245937
id-1373_AU15-33_AU16Open-33_AU2-33_AU4-100	1	1	1	1	8	test_extra	id-1373_AU15-33_AU16Open-33_AU2-33_AU4-100	arousal	-0.1630468142570692		4.352565064245937
id-1260_AU12-33	1	1	1	1	9	test_extra	id-1260_AU12-33	valence	0.3532680975569833		2.110543488202893
id-1260_AU12-33	1	1	1	1	9	test_extra	id-1260_AU12-33	arousal	0.0054348938085689745		2.110543488202893
id-1362_AU6-100	1	1	1	1	10	train	id-1362_AU6-100	valence	0.8940400315095961		0.5602384780922876
id-1362_AU6-100	1	1	1	1	10	train	id-1362_AU6-100	arousal	0.2608749028113107		0.5602384780922876
id-1306_AU22-66_AU25-33_AU43-33	1	1	1	1	11	test_extra	id-1306_AU22-66_AU25-33_AU43-33	valence	0.7880596022425012		1.1769076753153058
id-1306_AU22-66_AU25-33_AU43-33	1	1	1	1	11	test_extra	id-1306_AU22-66_AU25-33_AU43-33	arousal	-0.5760987437083112		1.1769076753153058
id-1273_AU1-33_AU25-100_AU4-33	1	1	1	1	12	test_extra	id-1273_AU1-33_AU25-100_AU4-33	valence	0.6847966198796908		0.8353944544887781
id-1273_AU1-33_AU25-100_AU4-33	1	1	1	1	12	test_extra	id-1273_AU1-33_AU25-100_AU4-33	arousal	-0.1630468142570692		0.8353944544887781
id-1360_AU13-100_AU2-66_AU24-33	1	1	1	1	13	test_extra	id-1360_AU13-100_AU2-66_AU24-33	valence	0.4483787392069404		4.385859749983865
id-1360_AU13-100_AU2-66_AU24-33	1	1	1	1	13	test_extra	id-1360_AU13-100_AU2-66_AU24-33	arousal	0.03260936285141384		4.385859749983865
id-1289_AU14-33_AU25-100_AU27i-66_AU7-33	1	1	1	1	14	test_extra	id-1289_AU14-33_AU25-100_AU27i-66_AU7-33	valence	-0.2663097966198797		0.7854524258782476
id-1289_AU14-33_AU25-100_AU27i-66_AU7-33	1	1	1	1	14	test_extra	id-1289_AU14-33_AU25-100_AU27i-66_AU7-33	arousal	0.30163660637557804		0.7854524258782476
id-1266_AU13-66_AU17-100_AU2-100_AU9-33	1	1	1	1	15	test	id-1266_AU13-66_AU17-100_AU2-100_AU9-33	valence	0.1847863894913451		3.877448389464917
id-1266_AU13-66_AU17-100_AU2-100_AU9-33	1	1	1	1	15	test	id-1266_AU13-66_AU17-100_AU2-100_AU9-33	arousal	0.5516417215697509		3.877448389464917
id-1366_AU14-33_AU25-33	1	1	1	1	16	test_extra	id-1366_AU14-33_AU25-33	valence	0.6032732127511561		2.827496399617303
id-1366_AU14-33_AU25-33	1	1	1	1	16	test_extra	id-1366_AU14-33_AU25-33	arousal	-0.3559855444612677		2.827496399617303
id-1285_AU11-66_AU4-33	1	1	1	1	17	train	id-1285_AU11-66_AU4-33	valence	-0.4266391639726645		3.877311045111128
id-1285_AU11-66_AU4-33	1	1	1	1	17	train	id-1285_AU11-66_AU4-33	arousal	-0.3695727789826902		3.877311045111128
id-1294_AU13-66_AU15-33_AU24-100_AU4-66	1	1	1	1	18	train	id-1294_AU13-66_AU15-33_AU24-100_AU4-66	valence	-0.6549047039325613		3.7193580977782403
id-1294_AU13-66_AU15-33_AU24-100_AU4-66	1	1	1	1	18	train	id-1294_AU13-66_AU15-33_AU24-100_AU4-66	arousal	-0.4429438453983714		3.7193580977782403
id-1279_AU22-33_AU26-33_AU4-33	1	1	1	1	19	test	id-1279_AU22-33_AU26-33_AU4-33	valence	-0.3478332037484143		1.568818726887912
id-1279_AU22-33_AU26-33_AU4-33	1	1	1	1	19	test	id-1279_AU22-33_AU26-33_AU4-33	arousal	-0.1711991549699227		1.568818726887912
id-1291_AU10Open-66_AU13-33_AU4-33_AU6-100	1	1	1	1	20	test_extra	id-1291_AU10Open-66_AU13-33_AU4-33_AU6-100	valence	-0.8152340712853461		0.8104330995665805
id-1291_AU10Open-66_AU13-33_AU4-33_AU6-100	1	1	1	1	20	test_extra	id-1291_AU10Open-66_AU13-33_AU4-33_AU6-100	arousal	0.8967574784138808		0.8104330995665805
id-1295_AU10Open-66_AU20-66_AU27i-66	1	1	1	1	21	train	id-1295_AU10Open-66_AU20-66_AU27i-66	valence	-0.7744723677210787		2.27730337797766
id-1295_AU10Open-66_AU20-66_AU27i-66	1	1	1	1	21	train	id-1295_AU10Open-66_AU20-66_AU27i-66	arousal	0.5407719339526129		2.27730337797766
id-1290_AU10Open-33_AU14-66_AU24-66	1	1	1	1	22	test	id-1290_AU10Open-33_AU14-66_AU24-66	valence	-0.2201131992470434		1.7105004435779847
id-1290_AU10Open-33_AU14-66_AU24-66	1	1	1	1	22	test	id-1290_AU10Open-33_AU14-66_AU24-66	arousal	0.7608851331996563		1.7105004435779847
id-1363_AU10Open-33_AU14-66_AU9-33	1	1	1	1	23	train	id-1363_AU10Open-33_AU14-66_AU9-33	valence	0.1875038363956296		1.3021693464907005
id-1363_AU10Open-33_AU14-66_AU9-33	1	1	1	1	23	train	id-1363_AU10Open-33_AU14-66_AU9-33	arousal	0.2581574559070263		1.3021693464907005
id-1294_AU11-66_AU20-33_AU25-33	1	1	1	1	24	test	id-1294_AU11-66_AU20-33_AU25-33	valence	0.3179412878012849		3.0939568183330266
id-1294_AU11-66_AU20-33_AU25-33	1	1	1	1	24	test	id-1294_AU11-66_AU20-33_AU25-33	arousal	-0.4809881020583541		3.0939568183330266
id-1318_AU13-33_AU20-66_AU5-100_AU6-66	1	1	1	1	25	test_extra	id-1318_AU13-33_AU20-66_AU5-100_AU6-66	valence	-0.1657642611613537		0.8603805615784951
id-1318_AU13-33_AU20-66_AU5-100_AU6-66	1	1	1	1	25	test_extra	id-1318_AU13-33_AU20-66_AU5-100_AU6-66	arousal	-0.0815234071285346		0.8603805615784951
id-1366_AU16Open-100_AU43-100	1	1	1	1	26	test_extra	id-1366_AU16Open-100_AU43-100	valence	0.6766442791668373		1.6604802343372285
id-1366_AU16Open-100_AU43-100	1	1	1	1	26	test_extra	id-1366_AU16Open-100_AU43-100	arousal	-0.7011013013053977		1.6604802343372285
id-1296_AU17-66_AU26-66_AU4-66	1	1	1	1	27	test_extra	id-1296_AU17-66_AU26-66_AU4-66	valence	-0.1250025575970864		1.2020462195432629
id-1296_AU17-66_AU26-66_AU4-66	1	1	1	1	27	test_extra	id-1296_AU17-66_AU26-66_AU4-66	arousal	-0.01630468142570692		1.2020462195432629
id-1361_AU13-66_AU6-33	1	1	1	1	28	test_extra	id-1361_AU13-66_AU6-33	valence	0.19022128329991408		1.2436941585783643
id-1361_AU13-66_AU6-33	1	1	1	1	28	test_extra	id-1361_AU13-66_AU6-33	arousal	0.2201131992470434		1.2436941585783643
id-1295_AU11-66_AU24-66_AU43-100_AU6-33	1	1	1	1	29	test_extra	id-1295_AU11-66_AU24-66_AU43-100_AU6-33	valence	-0.2092434116299055		1.5436611657478352
id-1295_AU11-66_AU24-66_AU43-100_AU6-33	1	1	1	1	29	test_extra	id-1295_AU11-66_AU24-66_AU43-100_AU6-33	arousal	0.00815234071285346		1.5436611657478352
id-1345_AU10Open-66_AU16Open-66_AU22-33_AU43-33	1	1	1	1	30	test_extra	id-1345_AU10Open-66_AU16Open-66_AU22-33_AU43-33	valence	-0.1521770266399313		4.435793930346335
id-1345_AU10Open-66_AU16Open-66_AU22-33_AU43-33	1	1	1	1	30	test_extra	id-1345_AU10Open-66_AU16Open-66_AU22-33_AU43-33	arousal	-0.33968086303556083		4.435793930346335
id-1323_AU12-66_AU16Open-33_AU7-66_AU9-100	1	1	1	1	31	test	id-1323_AU12-66_AU16Open-33_AU7-66_AU9-100	valence	0.3315285223227074		1.1852397987095171
id-1323_AU12-66_AU16Open-33_AU7-66_AU9-100	1	1	1	1	31	test	id-1323_AU12-66_AU16Open-33_AU7-66_AU9-100	arousal	0.3206587347055695		1.1852397987095171
id-1310_AU16Open-100_AU27i-66_AU6-33_AU7-66	1	1	1	1	32	test_extra	id-1310_AU16Open-100_AU27i-66_AU6-33_AU7-66	valence	-0.3097889470884315		3.1690156575587025
id-1310_AU16Open-100_AU27i-66_AU6-33_AU7-66	1	1	1	1	32	test_extra	id-1310_AU16Open-100_AU27i-66_AU6-33_AU7-66	arousal	0.4293566108769489		3.1690156575587025
id-1269_AU12-100_AU2-66_AU20-33_AU43-66	1	1	1	1	33	test_extra	id-1269_AU12-100_AU2-66_AU20-33_AU43-66	valence	0.5597940622826043		1.7268942276441517
id-1269_AU12-100_AU2-66_AU20-33_AU43-66	1	1	1	1	33	test_extra	id-1269_AU12-100_AU2-66_AU20-33_AU43-66	arousal	-0.6956664074968286		1.7268942276441517
id-1339_AU10Open-100_AU12-33_AU20-100_AU27i-33	1	1	1	1	34	test	id-1339_AU10Open-100_AU12-33_AU20-100_AU27i-33	valence	0.5271846994311905		1.027050800204961
id-1339_AU10Open-100_AU12-33_AU20-100_AU27i-33	1	1	1	1	34	test	id-1339_AU10Open-100_AU12-33_AU20-100_AU27i-33	arousal	0.7092536420182511		1.027050800204961
id-1380_AU2-33_AU25-100_AU7-33	1	1	1	1	35	train	id-1380_AU2-33_AU25-100_AU7-33	valence	0.4103344825469576		1.3187702035811526
id-1380_AU2-33_AU25-100_AU7-33	1	1	1	1	35	train	id-1380_AU2-33_AU25-100_AU7-33	arousal	0.04891404427712077		1.3187702035811526
id-1345_AU14-100	1	1	1	1	36	test_extra	id-1345_AU14-100	valence	0.6304476817940009		1.643855228790926
id-1345_AU14-100	1	1	1	1	36	test_extra	id-1345_AU14-100	arousal	-0.1657642611613537		1.643855228790926
id-1307_AU10Open-66_AU17-33_AU22-33_AU9-100	1	1	1	2	1	test	id-1307_AU10Open-66_AU17-33_AU22-33_AU9-100	emotion	Walging	0.7354538558723293	3.803492531033044
id-1341_AU14-33_AU2-33	1	1	1	2	2	test_extra	id-1341_AU14-33_AU2-33	emotion	Blij	0.16075592859303695	0.6113085415217938
id-1335_AU11-66_AU14-100	1	1	1	2	3	train	id-1335_AU11-66_AU14-100	emotion	Blij	0.28908216256867986	1.219828841769413
id-1363_AU25-33_AU27i-66	1	1	1	2	4	train	id-1363_AU25-33_AU27i-66	emotion	Verrassing	0.4234367642882431	2.519984508764537
id-1269_AU10Open-33	1	1	1	2	5	test_extra	id-1269_AU10Open-33	emotion	Boos	0.2525160952494659	1.519840825441861
id-1264_AU11-33_AU13-33_AU22-33	1	1	1	2	6	test_extra	id-1264_AU11-33_AU13-33_AU22-33	emotion	Blij	0.1181187293330267	2.3532907253920707
id-1362_AU12-66_AU17-100_AU22-100	1	1	1	2	7	test_extra	id-1362_AU12-66_AU17-100_AU22-100	emotion	Blij	0.5944892194931709	1.1613014328177087
id-1354_AU1-66_AU10Open-100	1	1	1	2	8	test	id-1354_AU1-66_AU10Open-100	emotion	Bang	0.1439957438137435	0.9795607455962454
id-1310_AU11-33_AU26-33	1	1	1	2	9	test_extra	id-1310_AU11-33_AU26-33	emotion	Geen van allen	0.0	4.320188925457842
id-1291_AU10Open-33_AU11-100_AU15-100	1	1	1	2	10	train	id-1291_AU10Open-33_AU11-100_AU15-100	emotion	Walging	0.6947485239302066	0.7613576987241686
id-1360_AU1-100_AU11-66	1	1	1	2	11	test	id-1360_AU1-100_AU11-66	emotion	Verrassing	0.2463321221551775	2.6616417751411063
id-1297_AU11-100_AU24-33	1	1	1	2	12	test	id-1297_AU11-100_AU24-33	emotion	Boos	0.18214439879090305	1.3971730004541314
id-1380_AU1-66_AU14-100_AU17-66_AU9-33	1	1	1	2	13	test_extra	id-1380_AU1-66_AU14-100_AU17-66_AU9-33	emotion	Blij	0.27292791001774114	0.8199210285056324
id-1377_AU10Open-66_AU16Open-66_AU26-100	1	1	1	2	14	train	id-1377_AU10Open-66_AU16Open-66_AU26-100	emotion	Geen van allen	0.0	5.030872595456458
id-1347_AU10Open-100_AU25-100	1	1	1	2	15	test_extra	id-1347_AU10Open-100_AU25-100	emotion	Walging	0.11933377224894745	1.044796596033848
id-1260_AU17-33_AU24-100_AU6-33	1	1	1	2	16	test_extra	id-1260_AU17-33_AU24-100_AU6-33	emotion	Verdrietig	0.17942514681949806	0.6614301742829412
id-1309_AU26-33_AU5-66	1	1	1	2	17	test_extra	id-1309_AU26-33_AU5-66	emotion	Verrassing	0.33074572289568754	1.7282154501226614
id-1311_AU24-66	1	1	1	2	18	test_extra	id-1311_AU24-66	emotion	Blij	0.3078815339577283	3.2035636482414707
id-1309_AU11-66_AU24-66	1	1	1	2	19	test	id-1309_AU11-66_AU24-66	emotion	Blij	0.14922541598094444	0.8863896576986008
id-1335_AU43-66_AU5-66	1	1	1	2	20	test	id-1335_AU43-66_AU5-66	emotion	Blij	0.2246635099057712	3.436724551525913
id-1370_AU25-66	1	1	1	2	21	train	id-1370_AU25-66	emotion	Blij	0.32514722308983274	1.1114644499975839
id-1294_AU11-66_AU43-33_AU5-33	1	1	1	2	22	test_extra	id-1294_AU11-66_AU43-33_AU5-33	emotion	Blij	0.3529330975100422	1.436633692954274
id-1279_AU13-66_AU20-33	1	1	1	2	23	test_extra	id-1279_AU13-66_AU20-33	emotion	Verrassing	0.2288025222621793	1.6532021911098127
id-1344_AU12-66_AU22-66_AU26-100_AU27i-33	1	1	1	2	24	test_extra	id-1344_AU12-66_AU22-66_AU26-100_AU27i-33	emotion	Verrassing	0.3803458629443824	1.4197406395305734
id-1342_AU11-33_AU4-100_AU43-100_AU5-33	1	1	1	2	25	train	id-1342_AU11-33_AU4-100_AU43-100_AU5-33	emotion	Blij	0.1837686900391869	1.1030484107141092
id-1260_AU13-33_AU4-66	1	1	1	2	26	train	id-1260_AU13-33_AU4-66	emotion	Verdrietig	0.23766233239248424	1.0031239048294085
id-1311_AU16Open-100_AU43-100_AU6-66_AU9-100	1	1	1	2	27	test	id-1311_AU16Open-100_AU43-100_AU6-66_AU9-100	emotion	Boos	0.43717564262658737	1.061534797474451
id-1361_AU10Open-33_AU11-100_AU13-66_AU2-100	1	1	1	2	28	test_extra	id-1361_AU10Open-33_AU11-100_AU13-66_AU2-100	emotion	Blij	0.32355055345505995	0.5865379594124533
id-1341_AU14-33_AU4-100_AU7-66	1	1	1	2	29	train	id-1341_AU14-33_AU4-100_AU7-66	emotion	Verrassing	0.0402824723740877	3.0882324264894123
id-1279_AU10Open-100_AU24-33	1	1	1	2	30	test_extra	id-1279_AU10Open-100_AU24-33	emotion	Blij	0.2288025222621793	1.394718611609278
id-1315_AU27i-66	1	1	1	2	31	train	id-1315_AU27i-66	emotion	Verrassing	0.5099200113300345	3.528366136497425
id-1362_AU1-100_AU26-66	1	1	1	2	32	test_extra	id-1362_AU1-100_AU26-66	emotion	Verrassing	0.8488024542986917	1.2781524981110124
id-1291_AU1-100_AU16Open-100_AU6-33	1	1	1	2	33	test_extra	id-1291_AU1-100_AU16Open-100_AU6-33	emotion	Boos	0.20027364567804548	1.2948568917126977
id-1377_AU10Open-100_AU22-66_AU4-66_AU5-100_AU7-100	1	1	1	2	34	test_extra	id-1377_AU10Open-100_AU22-66_AU4-66_AU5-100_AU7-100	emotion	Walging	0.13291088584239782	1.3114891417953911
id-1377_AU1-100_AU13-33_AU26-33_AU9-33	1	1	1	2	35	test_extra	id-1377_AU1-100_AU13-33_AU26-33_AU9-33	emotion	Boos	0.5892419078179124	0.5696120037155197
id-1376_AU10Open-100_AU11-66_AU13-100_AU6-100	1	1	1	2	36	train	id-1376_AU10Open-100_AU11-66_AU13-100_AU6-100	emotion	Blij	0.2912054411518788	0.7447115632767236
id-1285_AU24-66_AU9-66	1	1	1	3	1	test_extra	id-1285_AU24-66_AU9-66	emotion	Boos	0.2093379379522514	2.303380693489089
id-1269_AU10Open-66_AU20-66_AU26-66_AU43-66	1	1	1	3	2	test	id-1269_AU10Open-66_AU20-66_AU26-66_AU43-66	emotion	Walging	0.2797233311356962	0.7447034131746477
id-1269_AU17-33	1	1	1	3	3	test_extra	id-1269_AU17-33	emotion	Blij	0.07808800316552038	0.8780385173940886
id-1291_AU4-100_AU43-33_AU7-66	1	1	1	3	4	test	id-1291_AU4-100_AU43-33_AU7-66	emotion	Verrassing	0.20549570927041005	4.0284357142409135
id-1273_AU15-66_AU20-66_AU5-66	1	1	1	3	5	train	id-1273_AU15-66_AU20-66_AU5-66	emotion	Verrassing	0.1404652820772269	2.09487023373731
id-1310_AU14-100_AU15-66_AU2-66_AU24-100_AU43-66	1	1	1	3	6	test_extra	id-1310_AU14-100_AU15-66_AU2-66_AU24-100_AU43-66	emotion	Walging	0.07302556940645638	6.887161200913397
id-1296_AU22-66_AU24-66_AU25-66_AU5-66_AU6-100	1	1	1	3	7	train	id-1296_AU22-66_AU24-66_AU25-66_AU5-66_AU6-100	emotion	Bang	0.08507227515754083	1.0197495140891988
id-1361_AU15-66_AU24-66_AU7-66	1	1	1	3	8	train	id-1361_AU15-66_AU24-66_AU7-66	emotion	Blij	0.15522973851946872	0.7613948269772663
id-1264_AU10Open-33_AU25-66_AU4-66	1	1	1	3	9	test	id-1264_AU10Open-33_AU25-66_AU4-66	emotion	Boos	0.21538409784837684	1.4712598642672674
id-1273_AU22-33_AU24-66_AU9-66	1	1	1	3	10	train	id-1273_AU22-33_AU24-66_AU9-66	emotion	Blij	0.1408577413348611	0.6198730938194785
id-1370_AU20-33_AU26-100	1	1	1	3	11	test_extra	id-1370_AU20-33_AU26-100	emotion	Geen van allen	0.0	0.6364531228628039
id-1376_AU13-66_AU22-100_AU27i-33_AU6-33	1	1	1	3	12	test_extra	id-1376_AU13-66_AU22-100_AU27i-33_AU6-33	emotion	Verrassing	0.3747218793640166	0.7780578663441702
id-1370_AU26-100_AU4-33_AU6-33	1	1	1	3	13	test_extra	id-1370_AU26-100_AU4-33_AU6-33	emotion	Walging	0.13604825861919378	0.8197172758973466
id-1310_AU13-66_AU14-100_AU4-66_AU9-33	1	1	1	3	14	test_extra	id-1310_AU13-66_AU14-100_AU4-66_AU9-33	emotion	Boos	0.20502277876592626	2.8615813436263124
id-1315_AU5-33_AU6-66	1	1	1	3	15	test_extra	id-1315_AU5-33_AU6-66	emotion	Boos	0.5496370798510898	0.6446418647919927
id-1360_AU1-66_AU14-66_AU15-66	1	1	1	3	16	test_extra	id-1360_AU1-66_AU14-66_AU15-66	emotion	Blij	0.12701498086008786	1.2700132605223189
id-1274_AU10Open-66_AU2-33_AU43-100_AU9-66	1	1	1	3	17	test	id-1274_AU10Open-66_AU2-33_AU43-100_AU9-66	emotion	Boos	0.7804419849491125	0.8862640857187216
id-1289_AU22-33_AU4-33_AU6-66	1	1	1	3	18	train	id-1289_AU22-33_AU4-33_AU6-66	emotion	Walging	0.15767162289280348	3.3116962148196762
id-1279_AU1-100_AU15-66_AU16Open-66_AU27i-100_AU43-33	1	1	1	3	19	test_extra	id-1279_AU1-100_AU15-66_AU16Open-66_AU27i-100_AU43-33	emotion	Verrassing	0.5826445088184306	2.844956639935845
id-1354_AU13-66_AU24-100_AU27i-66	1	1	1	3	20	test_extra	id-1354_AU13-66_AU24-100_AU27i-66	emotion	Verrassing	0.9409492870650692	0.8531882453771686
id-1289_AU17-33_AU26-66	1	1	1	3	21	test	id-1289_AU17-33_AU26-66	emotion	Geen van allen	0.0	0.6448404858547292
id-1356_AU12-33_AU15-66_AU16Open-66_AU6-33_AU9-100	1	1	1	3	22	test_extra	id-1356_AU12-33_AU15-66_AU16Open-66_AU6-33_AU9-100	emotion	Blij	0.42791643595992296	0.6130979422196106
id-1366_AU15-66_AU24-33_AU4-100_AU9-100	1	1	1	3	23	test_extra	id-1366_AU15-66_AU24-33_AU4-100_AU9-100	emotion	Walging	0.2040479959966587	2.3282795642771816
id-1273_AU12-100_AU16Open-33_AU20-100_AU22-66_AU5-66	1	1	1	3	24	test	id-1273_AU12-100_AU16Open-33_AU20-100_AU22-66_AU5-66	emotion	Blij	0.8302826173569908	0.6530183609775122
id-1307_AU1-33_AU16Open-33_AU22-100_AU27i-33	1	1	1	3	25	test_extra	id-1307_AU1-33_AU16Open-33_AU22-100_AU27i-33	emotion	Bang	0.2732364736665159	1.7281478344430068
id-1315_AU1-66_AU12-100	1	1	1	3	26	test_extra	id-1315_AU1-66_AU12-100	emotion	Blij	0.4592676672733986	1.061404395803038
id-1366_AU12-100	1	1	1	3	27	test_extra	id-1366_AU12-100	emotion	Blij	0.7908906804967321	0.7531294136952056
id-1362_AU11-66_AU13-100_AU15-100_AU9-100	1	1	1	3	28	train	id-1362_AU11-66_AU13-100_AU15-100_AU9-100	emotion	Boos	0.18961406743736253	2.628363087753314
id-1354_AU15-33_AU17-66_AU25-100_AU9-33	1	1	1	3	29	test_extra	id-1354_AU15-33_AU17-66_AU25-100_AU9-33	emotion	Walging	0.7435785588416395	1.4031053708877153
id-1358_AU12-66_AU24-33_AU26-100_AU7-33	1	1	1	3	30	train	id-1358_AU12-66_AU24-33_AU26-100_AU7-33	emotion	Blij	0.1918077965064453	0.5697122198125726
id-1373_AU5-33	1	1	1	3	31	train	id-1373_AU5-33	emotion	Bang	0.7238193258588037	0.7946246137362323
id-1310_AU12-33_AU14-33_AU22-100_AU6-100	1	1	1	3	32	test	id-1310_AU12-33_AU14-33_AU22-100_AU6-100	emotion	Blij	0.320671615399027	0.7948742484186369
id-1293_AU13-100	1	1	1	3	33	test_extra	id-1293_AU13-100	emotion	Blij	0.24875869291137745	0.9781311569131504
id-1366_AU15-66_AU22-66_AU24-33_AU5-100	1	1	1	3	34	train	id-1366_AU15-66_AU22-66_AU24-33_AU5-100	emotion	Verrassing	0.3410060273271181	2.1865000463349133
id-1291_AU1-100_AU14-100_AU24-66	1	1	1	3	35	test_extra	id-1291_AU1-100_AU14-100_AU24-66	emotion	Blij	0.5638163601787577	0.7447652935952647
id-1311_AU11-66_AU5-100_AU7-66	1	1	1	3	36	train	id-1311_AU11-66_AU5-100_AU7-66	emotion	Boos	0.3223907359559288	0.8032779116183519
id-1362_AU11-66_AU13-100_AU15-100_AU9-100	1	1	1	4	1	train	id-1362_AU11-66_AU13-100_AU15-100_AU9-100	valence	-0.6331651286982856		1.4270280402815845
id-1362_AU11-66_AU13-100_AU15-100_AU9-100	1	1	1	4	1	train	id-1362_AU11-66_AU13-100_AU15-100_AU9-100	arousal	0.8424085403281909		1.4270280402815845
id-1366_AU12-100	1	1	1	4	2	test_extra	id-1366_AU12-100	valence	0.4809881020583541		0.802035775335753
id-1366_AU12-100	1	1	1	4	2	test_extra	id-1366_AU12-100	arousal	0.4592485268240783		0.802035775335753
id-1310_AU14-100_AU15-66_AU2-66_AU24-100_AU43-66	1	1	1	4	3	test_extra	id-1310_AU14-100_AU15-66_AU2-66_AU24-100_AU43-66	valence	0.3179412878012849		2.9355559171126515
id-1310_AU14-100_AU15-66_AU2-66_AU24-100_AU43-66	1	1	1	4	3	test_extra	id-1310_AU14-100_AU15-66_AU2-66_AU24-100_AU43-66	arousal	0.1250025575970864		2.9355559171126515
id-1366_AU15-66_AU24-33_AU4-100_AU9-100	1	1	1	4	4	test_extra	id-1366_AU15-66_AU24-33_AU4-100_AU9-100	valence	-0.4538136330155093		0.7353540360072657
id-1366_AU15-66_AU24-33_AU4-100_AU9-100	1	1	1	4	4	test_extra	id-1366_AU15-66_AU24-33_AU4-100_AU9-100	arousal	0.5896859782297337		0.7353540360072657
id-1315_AU1-66_AU12-100	1	1	1	4	5	test_extra	id-1315_AU1-66_AU12-100	valence	0.4103344825469576		0.5019302163909742
id-1315_AU1-66_AU12-100	1	1	1	4	5	test_extra	id-1315_AU1-66_AU12-100	arousal	-0.4402263984940868		0.5019302163909742
id-1274_AU10Open-66_AU2-33_AU43-100_AU9-66	1	1	1	4	6	test	id-1274_AU10Open-66_AU2-33_AU43-100_AU9-66	valence	-0.8451259872324756		0.8270671607842814
id-1274_AU10Open-66_AU2-33_AU43-100_AU9-66	1	1	1	4	6	test	id-1274_AU10Open-66_AU2-33_AU43-100_AU9-66	arousal	0.8424085403281909		0.8270671607842814
id-1285_AU24-66_AU9-66	1	1	1	4	7	test_extra	id-1285_AU24-66_AU9-66	valence	-0.6358825756025699		1.4104181275215524
id-1285_AU24-66_AU9-66	1	1	1	4	7	test_extra	id-1285_AU24-66_AU9-66	arousal	0.4347915046855179		1.4104181275215524
id-1296_AU22-66_AU24-66_AU25-66_AU5-66_AU6-100	1	1	1	4	8	train	id-1296_AU22-66_AU24-66_AU25-66_AU5-66_AU6-100	valence	-0.8804527969881736		2.3271838280197703
id-1296_AU22-66_AU24-66_AU25-66_AU5-66_AU6-100	1	1	1	4	8	train	id-1296_AU22-66_AU24-66_AU25-66_AU5-66_AU6-100	arousal	0.07337106641568114		2.3271838280197703
id-1289_AU17-33_AU26-66	1	1	1	4	9	test	id-1289_AU17-33_AU26-66	valence	0.0027174469042844872		0.810415290079618
id-1289_AU17-33_AU26-66	1	1	1	4	9	test	id-1289_AU17-33_AU26-66	arousal	0.3831600135041127		0.810415290079618
id-1358_AU12-66_AU24-33_AU26-100_AU7-33	1	1	1	4	10	train	id-1358_AU12-66_AU24-33_AU26-100_AU7-33	valence	0.15761192044850025		0.7521692106565752
id-1358_AU12-66_AU24-33_AU26-100_AU7-33	1	1	1	4	10	train	id-1358_AU12-66_AU24-33_AU26-100_AU7-33	arousal	-0.3478332037484143		0.7521692106565752
id-1269_AU17-33	1	1	1	4	11	test_extra	id-1269_AU17-33	valence	-0.01630468142570692		2.260603814067508
id-1269_AU17-33	1	1	1	4	11	test_extra	id-1269_AU17-33	arousal	-0.8125166243810616		2.260603814067508
id-1291_AU4-100_AU43-33_AU7-66	1	1	1	4	12	test	id-1291_AU4-100_AU43-33_AU7-66	valence	-0.12228511069280193		3.120223699235794
id-1291_AU4-100_AU43-33_AU7-66	1	1	1	4	12	test	id-1291_AU4-100_AU43-33_AU7-66	arousal	0.4375089515898024		3.120223699235794
id-1356_AU12-33_AU15-66_AU16Open-66_AU6-33_AU9-100	1	1	1	4	13	test_extra	id-1356_AU12-33_AU15-66_AU16Open-66_AU6-33_AU9-100	valence	0.20652596472562101		1.2937696074168343
id-1356_AU12-33_AU15-66_AU16Open-66_AU6-33_AU9-100	1	1	1	4	13	test_extra	id-1356_AU12-33_AU15-66_AU16Open-66_AU6-33_AU9-100	arousal	0.1847863894913451		1.2937696074168343
id-1370_AU20-33_AU26-100	1	1	1	4	14	test_extra	id-1370_AU20-33_AU26-100	valence	0.1820689425870606		3.2188369438790687
id-1370_AU20-33_AU26-100	1	1	1	4	14	test_extra	id-1370_AU20-33_AU26-100	arousal	-0.1440246859270778		3.2188369438790687
id-1311_AU11-66_AU5-100_AU7-66	1	1	1	4	15	train	id-1311_AU11-66_AU5-100_AU7-66	valence	-0.3885949073126817		1.5271058888720292
id-1311_AU11-66_AU5-100_AU7-66	1	1	1	4	15	train	id-1311_AU11-66_AU5-100_AU7-66	arousal	0.2581574559070263		1.5271058888720292
id-1360_AU1-66_AU14-66_AU15-66	1	1	1	4	16	test_extra	id-1360_AU1-66_AU14-66_AU15-66	valence	0.1684817080656382		1.8687975064312925
id-1360_AU1-66_AU14-66_AU15-66	1	1	1	4	16	test_extra	id-1360_AU1-66_AU14-66_AU15-66	arousal	0.2201131992470434		1.8687975064312925
id-1273_AU12-100_AU16Open-33_AU20-100_AU22-66_AU5-66	1	1	1	4	17	test	id-1273_AU12-100_AU16Open-33_AU20-100_AU22-66_AU5-66	valence	0.09511064164995704		0.7602788663880347
id-1273_AU12-100_AU16Open-33_AU20-100_AU22-66_AU5-66	1	1	1	4	17	test	id-1273_AU12-100_AU16Open-33_AU20-100_AU22-66_AU5-66	arousal	0.5326195932397594		0.7602788663880347
id-1354_AU15-33_AU17-66_AU25-100_AU9-33	1	1	1	4	18	test_extra	id-1354_AU15-33_AU17-66_AU25-100_AU9-33	valence	-0.33968086303556083		1.0854019254165903
id-1354_AU15-33_AU17-66_AU25-100_AU9-33	1	1	1	4	18	test_extra	id-1354_AU15-33_AU17-66_AU25-100_AU9-33	arousal	-0.21196085853419		1.0854019254165903
id-1354_AU13-66_AU24-100_AU27i-66	1	1	1	4	19	test_extra	id-1354_AU13-66_AU24-100_AU27i-66	valence	-0.024457022138560384		0.9604710881085341
id-1354_AU13-66_AU24-100_AU27i-66	1	1	1	4	19	test_extra	id-1354_AU13-66_AU24-100_AU27i-66	arousal	0.6222953410811475		0.9604710881085341
id-1273_AU22-33_AU24-66_AU9-66	1	1	1	4	20	train	id-1273_AU22-33_AU24-66_AU9-66	valence	-0.13587234521422434		1.0105163513726438
id-1273_AU22-33_AU24-66_AU9-66	1	1	1	4	20	train	id-1273_AU22-33_AU24-66_AU9-66	arousal	-0.7771898146253633		1.0105163513726438
id-1273_AU15-66_AU20-66_AU5-66	1	1	1	4	21	train	id-1273_AU15-66_AU20-66_AU5-66	valence	-0.1875038363956296		2.6940019155754267
id-1273_AU15-66_AU20-66_AU5-66	1	1	1	4	21	train	id-1273_AU15-66_AU20-66_AU5-66	arousal	-0.2663097966198797		2.6940019155754267
id-1291_AU1-100_AU14-100_AU24-66	1	1	1	4	22	test_extra	id-1291_AU1-100_AU14-100_AU24-66	valence	0.4619659737283627		1.9438904553517204
id-1291_AU1-100_AU14-100_AU24-66	1	1	1	4	22	test_extra	id-1291_AU1-100_AU14-100_AU24-66	arousal	-0.3260936285141384		1.9438904553517204
id-1310_AU12-33_AU14-33_AU22-100_AU6-100	1	1	1	4	23	test	id-1310_AU12-33_AU14-33_AU22-100_AU6-100	valence	0.20652596472562101		2.5105943810758617
id-1310_AU12-33_AU14-33_AU22-100_AU6-100	1	1	1	4	23	test	id-1310_AU12-33_AU14-33_AU22-100_AU6-100	arousal	0.4429438453983714		2.5105943810758617
id-1289_AU22-33_AU4-33_AU6-66	1	1	1	4	24	train	id-1289_AU22-33_AU4-33_AU6-66	valence	-0.2907668187584401		1.9272138324777188
id-1289_AU22-33_AU4-33_AU6-66	1	1	1	4	24	train	id-1289_AU22-33_AU4-33_AU6-66	arousal	0.6195778941768629		1.9272138324777188
id-1315_AU5-33_AU6-66	1	1	1	4	25	test_extra	id-1315_AU5-33_AU6-66	valence	-0.7364281110610958		1.2452031353150232
id-1315_AU5-33_AU6-66	1	1	1	4	25	test_extra	id-1315_AU5-33_AU6-66	arousal	-0.13587234521422434		1.2452031353150232
id-1307_AU1-33_AU16Open-33_AU22-100_AU27i-33	1	1	1	4	26	test_extra	id-1307_AU1-33_AU16Open-33_AU22-100_AU27i-33	valence	-0.01902212832999141		0.5435684960430079
id-1307_AU1-33_AU16Open-33_AU22-100_AU27i-33	1	1	1	4	26	test_extra	id-1307_AU1-33_AU16Open-33_AU22-100_AU27i-33	arousal	0.5951208720383027		0.5435684960430079
id-1279_AU1-100_AU15-66_AU16Open-66_AU27i-100_AU43-33	1	1	1	4	27	test_extra	id-1279_AU1-100_AU15-66_AU16Open-66_AU27i-100_AU43-33	valence	-0.1440246859270778		5.977797908199136
id-1279_AU1-100_AU15-66_AU16Open-66_AU27i-100_AU43-33	1	1	1	4	27	test_extra	id-1279_AU1-100_AU15-66_AU16Open-66_AU27i-100_AU43-33	arousal	-0.3587029913655523		5.977797908199136
id-1310_AU13-66_AU14-100_AU4-66_AU9-33	1	1	1	4	28	test_extra	id-1310_AU13-66_AU14-100_AU4-66_AU9-33	valence	0.07880596022425011		0.8688325216935482
id-1310_AU13-66_AU14-100_AU4-66_AU9-33	1	1	1	4	28	test_extra	id-1310_AU13-66_AU14-100_AU4-66_AU9-33	arousal	0.3288110754184229		0.8688325216935482
id-1366_AU15-66_AU22-66_AU24-33_AU5-100	1	1	1	4	29	train	id-1366_AU15-66_AU22-66_AU24-33_AU5-100	valence	-0.6195778941768629		1.3020932788494974
id-1366_AU15-66_AU22-66_AU24-33_AU5-100	1	1	1	4	29	train	id-1366_AU15-66_AU22-66_AU24-33_AU5-100	arousal	0.2201131992470434		1.3020932788494974
id-1370_AU26-100_AU4-33_AU6-33	1	1	1	4	30	test_extra	id-1370_AU26-100_AU4-33_AU6-33	valence	-0.2282655399598969		1.4687541599487304
id-1370_AU26-100_AU4-33_AU6-33	1	1	1	4	30	test_extra	id-1370_AU26-100_AU4-33_AU6-33	arousal	0.2663097966198797		1.4687541599487304
id-1264_AU10Open-33_AU25-66_AU4-66	1	1	1	4	31	test	id-1264_AU10Open-33_AU25-66_AU4-66	valence	-0.7337106641568115		0.8854203989867528
id-1264_AU10Open-33_AU25-66_AU4-66	1	1	1	4	31	test	id-1264_AU10Open-33_AU25-66_AU4-66	arousal	0.4347915046855179		0.8854203989867528
id-1376_AU13-66_AU22-100_AU27i-33_AU6-33	1	1	1	4	32	test_extra	id-1376_AU13-66_AU22-100_AU27i-33_AU6-33	valence	0.09239319474567256		0.7435765857771912
id-1376_AU13-66_AU22-100_AU27i-33_AU6-33	1	1	1	4	32	test_extra	id-1376_AU13-66_AU22-100_AU27i-33_AU6-33	arousal	-0.4701183144412162		0.7435765857771912
id-1293_AU13-100	1	1	1	4	33	test_extra	id-1293_AU13-100	valence	-0.1440246859270778		2.0105697798353503
id-1293_AU13-100	1	1	1	4	33	test_extra	id-1293_AU13-100	arousal	-0.15489447354421576		2.0105697798353503
id-1361_AU15-66_AU24-66_AU7-66	1	1	1	4	34	train	id-1361_AU15-66_AU24-66_AU7-66	valence	-0.2771795842370177		1.360447120763638
id-1361_AU15-66_AU24-66_AU7-66	1	1	1	4	34	train	id-1361_AU15-66_AU24-66_AU7-66	arousal	-0.013587234521422437		1.360447120763638
id-1373_AU5-33	1	1	1	4	35	train	id-1373_AU5-33	valence	-0.19293873020419855		0.7103000113802409
id-1373_AU5-33	1	1	1	4	35	train	id-1373_AU5-33	arousal	0.5271846994311905		0.7103000113802409
id-1269_AU10Open-66_AU20-66_AU26-66_AU43-66	1	1	1	4	36	test	id-1269_AU10Open-66_AU20-66_AU26-66_AU43-66	valence	-0.8478434341367599		0.7520901244588458
id-1269_AU10Open-66_AU20-66_AU26-66_AU43-66	1	1	1	4	36	test	id-1269_AU10Open-66_AU20-66_AU26-66_AU43-66	arousal	0.3967472480255351		0.7520901244588458
id-1279_AU1-100_AU13-66_AU22-100_AU27i-100	1	1	2	5	1	test_extra	id-1279_AU1-100_AU13-66_AU22-100_AU27i-100	valence	0.09511064164995704		0.6687571181337262
id-1279_AU1-100_AU13-66_AU22-100_AU27i-100	1	1	2	5	1	test_extra	id-1279_AU1-100_AU13-66_AU22-100_AU27i-100	arousal	0.6576221508368458		0.6687571181337262
id-1361_AU12-33_AU13-100_AU4-100	1	1	2	5	2	test_extra	id-1361_AU12-33_AU13-100_AU4-100	valence	0.2608749028113107		0.9685888939438884
id-1361_AU12-33_AU13-100_AU4-100	1	1	2	5	2	test_extra	id-1361_AU12-33_AU13-100_AU4-100	arousal	0.1820689425870606		0.9685888939438884
id-1347_AU13-100_AU14-66_AU17-100_AU27i-66_AU7-100	1	1	2	5	3	test	id-1347_AU13-100_AU14-66_AU17-100_AU27i-66_AU7-100	valence	0.7581676862953719		0.8519032455824345
id-1347_AU13-100_AU14-66_AU17-100_AU27i-66_AU7-100	1	1	2	5	3	test	id-1347_AU13-100_AU14-66_AU17-100_AU27i-66_AU7-100	arousal	0.20652596472562101		0.8519032455824345
id-1269_AU14-100_AU20-100_AU5-66	1	1	2	5	4	test_extra	id-1269_AU14-100_AU20-100_AU5-66	valence	0.06793617260711217		0.8604943611844647
id-1269_AU14-100_AU20-100_AU5-66	1	1	2	5	4	test_extra	id-1269_AU14-100_AU20-100_AU5-66	arousal	0.2744621373327332		0.8604943611844647
id-1310_AU1-100_AU24-100_AU5-33	1	1	2	5	5	train	id-1310_AU1-100_AU24-100_AU5-33	valence	-0.33968086303556083		0.7352918537289952
id-1310_AU1-100_AU24-100_AU5-33	1	1	2	5	5	train	id-1310_AU1-100_AU24-100_AU5-33	arousal	0.20380851782133647		0.7352918537289952
id-1302_AU1-33_AU22-33_AU24-66_AU43-100_AU9-66	1	1	2	5	6	test_extra	id-1302_AU1-33_AU22-33_AU24-66_AU43-100_AU9-66	valence	-0.6603395977411303		0.7936985203941731
id-1302_AU1-33_AU22-33_AU24-66_AU43-100_AU9-66	1	1	2	5	6	test_extra	id-1302_AU1-33_AU22-33_AU24-66_AU43-100_AU9-66	arousal	-0.1630468142570692		0.7936985203941731
id-1309_AU15-66_AU43-100	1	1	2	5	7	train	id-1309_AU15-66_AU43-100	valence	-0.3478332037484143		2.5605825936108886
id-1309_AU15-66_AU43-100	1	1	2	5	7	train	id-1309_AU15-66_AU43-100	arousal	-0.3451157568441299		2.5605825936108886
id-1264_AU26-100_AU6-66_AU7-33	1	1	2	5	8	test_extra	id-1264_AU26-100_AU6-66_AU7-33	valence	0.0407617035642673		2.310537088860656
id-1264_AU26-100_AU6-66_AU7-33	1	1	2	5	8	test_extra	id-1264_AU26-100_AU6-66_AU7-33	arousal	0.3288110754184229		2.310537088860656
id-1356_AU13-100_AU15-33_AU16Open-100	1	1	2	5	9	test_extra	id-1356_AU13-100_AU15-33_AU16Open-100	valence	0.3641378851741212		2.060625004340181
id-1356_AU13-100_AU15-33_AU16Open-100	1	1	2	5	9	test_extra	id-1356_AU13-100_AU15-33_AU16Open-100	arousal	-0.20380851782133647		2.060625004340181
id-1341_AU1-33_AU15-33_AU2-66_AU4-33	1	1	2	5	10	test	id-1341_AU1-33_AU15-33_AU2-66_AU4-33	valence	0.5951208720383027		1.9354922255552085
id-1341_AU1-33_AU15-33_AU2-66_AU4-33	1	1	2	5	10	test	id-1341_AU1-33_AU15-33_AU2-66_AU4-33	arousal	-0.8723004562753204		1.9354922255552085
id-1293_AU1-33_AU22-33_AU27i-100	1	1	2	5	11	train	id-1293_AU1-33_AU22-33_AU27i-100	valence	-0.4972927834840611		1.2020480306782702
id-1293_AU1-33_AU22-33_AU27i-100	1	1	2	5	11	train	id-1293_AU1-33_AU22-33_AU27i-100	arousal	0.31522384089700045		1.2020480306782702
id-1366_AU20-100_AU22-66_AU4-100	1	1	2	5	12	train	id-1366_AU20-100_AU22-66_AU4-100	valence	-0.7011013013053977		1.2936171702785941
id-1366_AU20-100_AU22-66_AU4-100	1	1	2	5	12	train	id-1366_AU20-100_AU22-66_AU4-100	arousal	0.7907770491467857		1.2936171702785941
id-1302_AU15-66_AU24-100_AU25-100_AU43-33	1	1	2	5	13	test	id-1302_AU15-66_AU24-100_AU25-100_AU43-33	valence	-0.7391455579653804		0.8019817431631964
id-1302_AU15-66_AU24-100_AU25-100_AU43-33	1	1	2	5	13	test	id-1302_AU15-66_AU24-100_AU25-100_AU43-33	arousal	-0.3369634161312764		0.8019817431631964
id-1361_AU12-33_AU15-33_AU16Open-100_AU6-66	1	1	2	5	14	test	id-1361_AU12-33_AU15-33_AU16Open-100_AU6-66	valence	0.1711991549699227		2.4105068731041683
id-1361_AU12-33_AU15-33_AU16Open-100_AU6-66	1	1	2	5	14	test	id-1361_AU12-33_AU15-33_AU16Open-100_AU6-66	arousal	0.3614204382698367		2.4105068731041683
id-1367_AU17-66_AU9-100	1	1	2	5	15	train	id-1367_AU17-66_AU9-100	valence	-0.7826247084339323		0.9685967421919486
id-1367_AU17-66_AU9-100	1	1	2	5	15	train	id-1367_AU17-66_AU9-100	arousal	0.7690374739125099		0.9685967421919486
id-1366_AU14-33_AU2-100_AU26-100_AU27i-100	1	1	2	5	16	test	id-1366_AU14-33_AU2-100_AU26-100_AU27i-100	valence	0.7907770491467857		0.7103806068553241
id-1366_AU14-33_AU2-100_AU26-100_AU27i-100	1	1	2	5	16	test	id-1366_AU14-33_AU2-100_AU26-100_AU27i-100	arousal	0.7907770491467857		0.7103806068553241
id-1306_AU17-100_AU5-66	1	1	2	5	17	test_extra	id-1306_AU17-100_AU5-66	valence	-0.5951208720383027		2.5773108338125894
id-1306_AU17-100_AU5-66	1	1	2	5	17	test_extra	id-1306_AU17-100_AU5-66	arousal	0.5570766153783199		2.5773108338125894
id-1315_AU15-100_AU2-33_AU25-33_AU26-66	1	1	2	5	18	test_extra	id-1315_AU15-100_AU2-33_AU25-33_AU26-66	valence	-0.07880596022425011		0.8519925948749005
id-1315_AU15-100_AU2-33_AU25-33_AU26-66	1	1	2	5	18	test_extra	id-1315_AU15-100_AU2-33_AU25-33_AU26-66	arousal	0.4728357613455008		0.8519925948749005
id-1297_AU10Open-100_AU13-100_AU16Open-100_AU22-66_AU25-100	1	1	2	5	19	test_extra	id-1297_AU10Open-100_AU13-100_AU16Open-100_AU22-66_AU25-100	valence	0.0407617035642673		1.4853175869284314
id-1297_AU10Open-100_AU13-100_AU16Open-100_AU22-66_AU25-100	1	1	2	5	19	test_extra	id-1297_AU10Open-100_AU13-100_AU16Open-100_AU22-66_AU25-100	arousal	0.6630570446454148		1.4853175869284314
id-1356_AU15-100	1	1	2	5	20	train	id-1356_AU15-100	valence	-0.20652596472562101		1.7770605350506232
id-1356_AU15-100	1	1	2	5	20	train	id-1356_AU15-100	arousal	-0.3260936285141384		1.7770605350506232
id-1335_AU1-66_AU20-100_AU4-66_AU5-33	1	1	2	5	21	train	id-1335_AU1-66_AU20-100_AU4-66_AU5-33	valence	-0.2364178806727504		1.693675307689773
id-1335_AU1-66_AU20-100_AU4-66_AU5-33	1	1	2	5	21	train	id-1335_AU1-66_AU20-100_AU4-66_AU5-33	arousal	-0.9619762041167084		1.693675307689773
id-1376_AU14-33_AU17-33_AU2-100_AU27i-33_AU43-66	1	1	2	5	22	test_extra	id-1376_AU14-33_AU17-33_AU2-100_AU27i-33_AU43-66	valence	0.625012787985432		1.2603309364985762
id-1376_AU14-33_AU17-33_AU2-100_AU27i-33_AU43-66	1	1	2	5	22	test_extra	id-1376_AU14-33_AU17-33_AU2-100_AU27i-33_AU43-66	arousal	0.3750076727912592		1.2603309364985762
id-1296_AU12-100_AU9-33	1	1	2	5	23	train	id-1296_AU12-100_AU9-33	valence	-0.7309932172525271		0.7853144778146088
id-1296_AU12-100_AU9-33	1	1	2	5	23	train	id-1296_AU12-100_AU9-33	arousal	0.26359234971559525		0.7853144778146088
id-1344_AU12-66_AU20-33	1	1	2	5	24	test_extra	id-1344_AU12-66_AU20-33	valence	0.1440246859270778		0.6269513085608196
id-1344_AU12-66_AU20-33	1	1	2	5	24	test_extra	id-1344_AU12-66_AU20-33	arousal	-0.4972927834840611		0.6269513085608196
id-1370_AU12-33_AU24-33_AU26-33	1	1	2	5	25	test_extra	id-1370_AU12-33_AU24-33_AU26-33	valence	0.1440246859270778		1.9187341016368007
id-1370_AU12-33_AU24-33_AU26-33	1	1	2	5	25	test_extra	id-1370_AU12-33_AU24-33_AU26-33	arousal	0.07608851331996565		1.9187341016368007
id-1335_AU11-100_AU16Open-100_AU5-33	1	1	2	5	26	train	id-1335_AU11-100_AU16Open-100_AU5-33	valence	-0.19293873020419855		1.4936575585725222
id-1335_AU11-100_AU16Open-100_AU5-33	1	1	2	5	26	train	id-1335_AU11-100_AU16Open-100_AU5-33	arousal	0.21467830543847446		1.4936575585725222
id-1339_AU10Open-66_AU20-66_AU27i-100	1	1	2	5	27	test_extra	id-1339_AU10Open-66_AU20-66_AU27i-100	valence	-0.8125166243810616		1.5688105767821985
id-1339_AU10Open-66_AU20-66_AU27i-100	1	1	2	5	27	test_extra	id-1339_AU10Open-66_AU20-66_AU27i-100	arousal	0.6087081065597252		1.5688105767821985
id-1356_AU2-33_AU24-100_AU7-100	1	1	2	5	28	train	id-1356_AU2-33_AU24-100_AU7-100	valence	-0.3505506506526989		1.4769839542550471
id-1356_AU2-33_AU24-100_AU7-100	1	1	2	5	28	train	id-1356_AU2-33_AU24-100_AU7-100	arousal	-0.6222953410811475		1.4769839542550471
id-1306_AU11-33_AU16Open-66	1	1	2	5	29	test_extra	id-1306_AU11-33_AU16Open-66	valence	0.11956766378851742		1.2353167568253411
id-1306_AU11-33_AU16Open-66	1	1	2	5	29	test_extra	id-1306_AU11-33_AU16Open-66	arousal	0.0054348938085689745		1.2353167568253411
id-1295_AU11-33_AU12-100_AU13-100_AU20-33_AU9-66	1	1	2	5	30	test	id-1295_AU11-33_AU12-100_AU13-100_AU20-33_AU9-66	valence	-0.7934944960510701		1.3186636485133931
id-1295_AU11-33_AU12-100_AU13-100_AU20-33_AU9-66	1	1	2	5	30	test	id-1295_AU11-33_AU12-100_AU13-100_AU20-33_AU9-66	arousal	0.7907770491467857		1.3186636485133931
id-1297_AU10Open-100_AU6-100	1	1	2	5	31	test_extra	id-1297_AU10Open-100_AU6-100	valence	-0.6684919384539837		2.760640791393598
id-1297_AU10Open-100_AU6-100	1	1	2	5	31	test_extra	id-1297_AU10Open-100_AU6-100	arousal	0.7011013013053977		2.760640791393598
id-1373_AU1-33_AU11-100_AU25-33_AU5-33	1	1	2	5	32	test_extra	id-1373_AU1-33_AU11-100_AU25-33_AU5-33	valence	-0.3043540532798626		0.9603180472586246
id-1373_AU1-33_AU11-100_AU25-33_AU5-33	1	1	2	5	32	test_extra	id-1373_AU1-33_AU11-100_AU25-33_AU5-33	arousal	0.312506393992716		0.9603180472586246
id-1273_AU12-100_AU16Open-100_AU5-66	1	1	2	5	33	train	id-1273_AU12-100_AU16Open-100_AU5-66	valence	0.21739575234275896		1.4186853519368017
id-1273_AU12-100_AU16Open-100_AU5-66	1	1	2	5	33	train	id-1273_AU12-100_AU16Open-100_AU5-66	arousal	0.4320740577812335		1.4186853519368017
id-1290_AU1-66_AU22-33_AU25-66	1	1	2	5	34	test_extra	id-1290_AU1-66_AU22-33_AU25-66	valence	0.0815234071285346		0.9603660423181282
id-1290_AU1-66_AU22-33_AU25-66	1	1	2	5	34	test_extra	id-1290_AU1-66_AU22-33_AU25-66	arousal	-0.5625115091868887		0.9603660423181282
id-1344_AU13-66_AU14-66_AU24-33_AU9-33	1	1	2	5	35	test	id-1344_AU13-66_AU14-66_AU24-33_AU9-33	valence	0.10869787617137948		1.268545336162788
id-1344_AU13-66_AU14-66_AU24-33_AU9-33	1	1	2	5	35	test	id-1344_AU13-66_AU14-66_AU24-33_AU9-33	arousal	-0.4510961861112248		1.268545336162788
id-1291_AU12-33_AU17-100_AU5-66	1	1	2	5	36	train	id-1291_AU12-33_AU17-100_AU5-66	valence	0.10869787617137948		1.6519660919439048
id-1291_AU12-33_AU17-100_AU5-66	1	1	2	5	36	train	id-1291_AU12-33_AU17-100_AU5-66	arousal	0.2663097966198797		1.6519660919439048
id-1355_AU13-66_AU2-66_AU6-33	1	1	2	6	1	test_extra	id-1355_AU13-66_AU2-66_AU6-33	valence	-0.11141532307566396		2.6021429944867123
id-1355_AU13-66_AU2-66_AU6-33	1	1	2	6	1	test_extra	id-1355_AU13-66_AU2-66_AU6-33	arousal	0.19022128329991408		2.6021429944867123
id-1377_AU2-66_AU25-100_AU9-100	1	1	2	6	2	test_extra	id-1377_AU2-66_AU25-100_AU9-100	valence	-0.6277302348897165		1.0436395830656693
id-1377_AU2-66_AU25-100_AU9-100	1	1	2	6	2	test_extra	id-1377_AU2-66_AU25-100_AU9-100	arousal	0.2500051151941728		1.0436395830656693
id-1370_AU1-33_AU15-33_AU2-100	1	1	2	6	3	test_extra	id-1370_AU1-33_AU15-33_AU2-100	valence	0.5896859782297337		1.3437789498493655
id-1370_AU1-33_AU15-33_AU2-100	1	1	2	6	3	test_extra	id-1370_AU1-33_AU15-33_AU2-100	arousal	0.17391660187420716		1.3437789498493655
id-1323_AU25-33_AU26-66	1	1	2	6	4	test_extra	id-1323_AU25-33_AU26-66	valence	-0.14130723902279332		0.7520068122794328
id-1323_AU25-33_AU26-66	1	1	2	6	4	test_extra	id-1323_AU25-33_AU26-66	arousal	0.2663097966198797		0.7520068122794328
id-1264_AU22-100_AU26-33	1	1	2	6	5	train	id-1264_AU22-100_AU26-33	valence	-0.04347915046855179		1.5853278198374028
id-1264_AU22-100_AU26-33	1	1	2	6	5	train	id-1264_AU22-100_AU26-33	arousal	0.5489242746654663		1.5853278198374028
id-1378_AU1-66_AU20-66_AU7-33	1	1	2	6	6	test	id-1378_AU1-66_AU20-66_AU7-33	valence	0.1684817080656382		1.7518350563750569
id-1378_AU1-66_AU20-66_AU7-33	1	1	2	6	6	test	id-1378_AU1-66_AU20-66_AU7-33	arousal	-0.04619659737283628		1.7518350563750569
id-1354_AU11-100_AU15-100_AU4-66_AU9-66	1	1	2	6	7	test_extra	id-1354_AU11-100_AU15-100_AU4-66_AU9-66	valence	-0.864148115562467		2.6438999034362496
id-1354_AU11-100_AU15-100_AU4-66_AU9-66	1	1	2	6	7	test_extra	id-1354_AU11-100_AU15-100_AU4-66_AU9-66	arousal	0.2418527744813193		2.6438999034362496
id-1356_AU6-33	1	1	2	6	8	test	id-1356_AU6-33	valence	-0.44566129230265583		0.9686453409613024
id-1356_AU6-33	1	1	2	6	8	test	id-1356_AU6-33	arousal	0.2201131992470434		0.9686453409613024
id-1341_AU12-66_AU13-33_AU14-100_AU15-33_AU22-100	1	1	2	6	9	train	id-1341_AU12-66_AU13-33_AU14-100_AU15-33_AU22-100	valence	0.7119710889225355		1.2353306421882737
id-1341_AU12-66_AU13-33_AU14-100_AU15-33_AU22-100	1	1	2	6	9	train	id-1341_AU12-66_AU13-33_AU14-100_AU15-33_AU22-100	arousal	-0.15489447354421576		1.2353306421882737
id-1285_AU1-66_AU12-100_AU14-66_AU16Open-33_AU24-66	1	1	2	6	10	test_extra	id-1285_AU1-66_AU12-100_AU14-66_AU16Open-33_AU24-66	valence	0.6929489605925442		0.8769765889755945
id-1285_AU1-66_AU12-100_AU14-66_AU16Open-33_AU24-66	1	1	2	6	10	test_extra	id-1285_AU1-66_AU12-100_AU14-66_AU16Open-33_AU24-66	arousal	0.2798970311413021		0.8769765889755945
id-1345_AU11-33_AU25-33_AU9-66	1	1	2	6	11	test_extra	id-1345_AU11-33_AU25-33_AU9-66	valence	-0.7119710889225355		5.660814086761093
id-1345_AU11-33_AU25-33_AU9-66	1	1	2	6	11	test_extra	id-1345_AU11-33_AU25-33_AU9-66	arousal	0.23098298686418134		5.660814086761093
id-1339_AU22-33	1	1	2	6	12	train	id-1339_AU22-33	valence	-0.0054348938085689745		3.5273443548903742
id-1339_AU22-33	1	1	2	6	12	train	id-1339_AU22-33	arousal	-0.9538238634038548		3.5273443548903742
id-1345_AU17-66_AU25-66_AU6-100	1	1	2	6	13	test	id-1345_AU17-66_AU25-66_AU6-100	valence	-0.4809881020583541		4.0606307395974
id-1345_AU17-66_AU25-66_AU6-100	1	1	2	6	13	test	id-1345_AU17-66_AU25-66_AU6-100	arousal	-0.2092434116299055		4.0606307395974
id-1307_AU17-66_AU25-33_AU4-100	1	1	2	6	14	test_extra	id-1307_AU17-66_AU25-33_AU4-100	valence	-0.5788161906125957		5.128243703817134
id-1307_AU17-66_AU25-33_AU4-100	1	1	2	6	14	test_extra	id-1307_AU17-66_AU25-33_AU4-100	arousal	-0.12228511069280193		5.128243703817134
id-1290_AU14-66_AU16Open-100_AU27i-33	1	1	2	6	15	test_extra	id-1290_AU14-66_AU16Open-100_AU27i-33	valence	-0.5679464029954577		2.7771852014629985
id-1290_AU14-66_AU16Open-100_AU27i-33	1	1	2	6	15	test_extra	id-1290_AU14-66_AU16Open-100_AU27i-33	arousal	0.3288110754184229		2.7771852014629985
id-1318_AU2-66_AU22-100_AU5-33_AU7-66	1	1	2	6	16	test_extra	id-1318_AU2-66_AU22-100_AU5-33_AU7-66	valence	-0.7228408765396734		0.9852800058924912
id-1318_AU2-66_AU22-100_AU5-33_AU7-66	1	1	2	6	16	test_extra	id-1318_AU2-66_AU22-100_AU5-33_AU7-66	arousal	0.02173957523427589		0.9852800058924912
id-1347_AU20-100_AU5-100	1	1	2	6	17	test_extra	id-1347_AU20-100_AU5-100	valence	-0.1521770266399313		0.8853573111409787
id-1347_AU20-100_AU5-100	1	1	2	6	17	test_extra	id-1347_AU20-100_AU5-100	arousal	-0.3994646949298196		0.8853573111409787
id-1378_AU15-100_AU16Open-66_AU26-66_AU7-100	1	1	2	6	18	test_extra	id-1378_AU15-100_AU16Open-66_AU26-66_AU7-100	valence	-0.1032629823628105		1.0768624271422595
id-1378_AU15-100_AU16Open-66_AU26-66_AU7-100	1	1	2	6	18	test_extra	id-1378_AU15-100_AU16Open-66_AU26-66_AU7-100	arousal	0.3695727789826902		1.0768624271422595
id-1307_AU17-66_AU2-100_AU7-66	1	1	2	6	19	test_extra	id-1307_AU17-66_AU2-100_AU7-66	valence	-0.3478332037484143		0.9352410815972688
id-1307_AU17-66_AU2-100_AU7-66	1	1	2	6	19	test_extra	id-1307_AU17-66_AU2-100_AU7-66	arousal	-0.19293873020419855		0.9352410815972688
id-1294_AU12-33_AU13-33_AU15-100_AU22-33	1	1	2	6	20	train	id-1294_AU12-33_AU13-33_AU15-100_AU22-33	valence	0.20652596472562101		4.127269917269587
id-1294_AU12-33_AU13-33_AU15-100_AU22-33	1	1	2	6	20	train	id-1294_AU12-33_AU13-33_AU15-100_AU22-33	arousal	-0.19022128329991408		4.127269917269587
id-1290_AU24-33_AU25-66_AU4-66	1	1	2	6	21	test_extra	id-1290_AU24-33_AU25-66_AU4-66	valence	-0.8777353500838894		1.8688195418981195
id-1290_AU24-33_AU25-66_AU4-66	1	1	2	6	21	test_extra	id-1290_AU24-33_AU25-66_AU4-66	arousal	0.2798970311413021		1.8688195418981195
id-1373_AU11-33_AU13-100_AU16Open-66_AU43-33	1	1	2	6	22	test	id-1373_AU11-33_AU13-100_AU16Open-66_AU43-33	valence	0.6222953410811475		1.4852511786702962
id-1373_AU11-33_AU13-100_AU16Open-66_AU43-33	1	1	2	6	22	test	id-1373_AU11-33_AU13-100_AU16Open-66_AU43-33	arousal	-0.38044256659982817		1.4852511786702962
id-1341_AU12-33_AU2-66_AU20-33_AU24-66_AU5-33	1	1	2	6	23	train	id-1341_AU12-33_AU2-66_AU20-33_AU24-66_AU5-33	valence	0.6114255534640095		1.0020169999097561
id-1341_AU12-33_AU2-66_AU20-33_AU24-66_AU5-33	1	1	2	6	23	train	id-1341_AU12-33_AU2-66_AU20-33_AU24-66_AU5-33	arousal	-0.4701183144412162		1.0020169999097561
id-1273_AU1-33_AU13-33_AU26-33	1	1	2	6	24	test	id-1273_AU1-33_AU13-33_AU26-33	valence	0.8070817305724926		0.7767547552084579
id-1273_AU1-33_AU13-33_AU26-33	1	1	2	6	24	test	id-1273_AU1-33_AU13-33_AU26-33	arousal	-0.28261447804558665		0.7767547552084579
id-1290_AU10Open-33_AU2-66_AU9-33	1	1	2	6	25	test_extra	id-1290_AU10Open-33_AU2-66_AU9-33	valence	-0.9212145005524409		1.260263924528772
id-1290_AU10Open-33_AU2-66_AU9-33	1	1	2	6	25	test_extra	id-1290_AU10Open-33_AU2-66_AU9-33	arousal	0.7907770491467857		1.260263924528772
id-1345_AU26-66_AU27i-100_AU9-100	1	1	2	6	26	train	id-1345_AU26-66_AU27i-100_AU9-100	valence	-0.2255480930556124		1.0438188853622703
id-1345_AU26-66_AU27i-100_AU9-100	1	1	2	6	26	train	id-1345_AU26-66_AU27i-100_AU9-100	arousal	0.44566129230265583		1.0438188853622703
id-1318_AU15-33_AU2-33_AU7-33	1	1	2	6	27	test_extra	id-1318_AU15-33_AU2-33_AU7-33	valence	-0.4510961861112248		0.8935910295731446
id-1318_AU15-33_AU2-33_AU7-33	1	1	2	6	27	test_extra	id-1318_AU15-33_AU2-33_AU7-33	arousal	0.1440246859270778		0.8935910295731446
id-1370_AU10Open-100_AU2-33_AU27i-66_AU5-66	1	1	2	6	28	test	id-1370_AU10Open-100_AU2-33_AU27i-66_AU5-66	valence	-0.3097889470884315		0.40195137647788215
id-1370_AU10Open-100_AU2-33_AU27i-66_AU5-66	1	1	2	6	28	test	id-1370_AU10Open-100_AU2-33_AU27i-66_AU5-66	arousal	-0.0407617035642673		0.40195137647788215
id-1291_AU10Open-66_AU22-66_AU27i-66_AU9-100	1	1	2	6	29	train	id-1291_AU10Open-66_AU22-66_AU27i-66_AU9-100	valence	-0.725558323443958		0.7685059439918405
id-1291_AU10Open-66_AU22-66_AU27i-66_AU9-100	1	1	2	6	29	train	id-1291_AU10Open-66_AU22-66_AU27i-66_AU9-100	arousal	0.2527225620984573		0.7685059439918405
id-1378_AU10Open-100_AU24-66_AU43-100	1	1	2	6	30	test_extra	id-1378_AU10Open-100_AU24-66_AU43-100	valence	-0.0407617035642673		1.5437082552398351
id-1378_AU10Open-100_AU24-66_AU43-100	1	1	2	6	30	test_extra	id-1378_AU10Open-100_AU24-66_AU43-100	arousal	0.41305192945124203		1.5437082552398351
id-1367_AU10Open-33_AU14-33_AU17-66_AU43-66	1	1	2	6	31	test_extra	id-1367_AU10Open-33_AU14-33_AU17-66_AU43-66	valence	0.8179515181896305		1.260263924528772
id-1367_AU10Open-33_AU14-33_AU17-66_AU43-66	1	1	2	6	31	test_extra	id-1367_AU10Open-33_AU14-33_AU17-66_AU43-66	arousal	-0.33968086303556083		1.260263924528772
id-1373_AU1-66_AU24-33_AU26-66_AU7-33	1	1	2	6	32	test_extra	id-1373_AU1-66_AU24-33_AU26-66_AU7-33	valence	-0.0815234071285346		1.6020207429210132
id-1373_AU1-66_AU24-33_AU26-66_AU7-33	1	1	2	6	32	test_extra	id-1373_AU1-66_AU24-33_AU26-66_AU7-33	arousal	-0.11141532307566396		1.6020207429210132
id-1339_AU14-100_AU15-66_AU26-33	1	1	2	6	33	test_extra	id-1339_AU14-100_AU15-66_AU26-33	valence	0.9212145005524409		1.7103320080859703
id-1339_AU14-100_AU15-66_AU26-33	1	1	2	6	33	test_extra	id-1339_AU14-100_AU15-66_AU26-33	arousal	-0.22283064615132792		1.7103320080859703
id-1306_AU24-66_AU43-100_AU7-100	1	1	2	6	34	test	id-1306_AU24-66_AU43-100_AU7-100	valence	0.2364178806727504		0.7018897073539847
id-1306_AU24-66_AU43-100_AU7-100	1	1	2	6	34	test	id-1306_AU24-66_AU43-100_AU7-100	arousal	-0.5625115091868887		0.7018897073539847
id-1315_AU11-33_AU2-66_AU26-33	1	1	2	6	35	test_extra	id-1315_AU11-33_AU2-66_AU26-33	valence	-0.19565617710848307		4.077400032176229
id-1315_AU11-33_AU2-66_AU26-33	1	1	2	6	35	test_extra	id-1315_AU11-33_AU2-66_AU26-33	arousal	0.07608851331996565		4.077400032176229
id-1306_AU16Open-66_AU2-33_AU5-33_AU6-100	1	1	2	6	36	test_extra	id-1306_AU16Open-66_AU2-33_AU5-33_AU6-100	valence	-0.057066384989974225		2.260523822302275
id-1306_AU16Open-66_AU2-33_AU5-33_AU6-100	1	1	2	6	36	test_extra	id-1306_AU16Open-66_AU2-33_AU5-33_AU6-100	arousal	0.1630468142570692		2.260523822302275
id-1291_AU12-33_AU17-100_AU5-66	1	1	2	7	1	train	id-1291_AU12-33_AU17-100_AU5-66	emotion	Blij	0.303070361190618	0.6862393939227331
id-1344_AU12-66_AU20-33	1	1	2	7	2	test_extra	id-1344_AU12-66_AU20-33	emotion	Blij	0.08477264528525137	0.6112086272787565
id-1295_AU11-33_AU12-100_AU13-100_AU20-33_AU9-66	1	1	2	7	3	test	id-1295_AU11-33_AU12-100_AU13-100_AU20-33_AU9-66	emotion	Boos	0.6943633878337608	0.6946871280579217
id-1302_AU15-66_AU24-100_AU25-100_AU43-33	1	1	2	7	4	test	id-1302_AU15-66_AU24-100_AU25-100_AU43-33	emotion	Verdrietig	0.17680143451760474	1.1031039521676576
id-1315_AU15-100_AU2-33_AU25-33_AU26-66	1	1	2	7	5	test_extra	id-1315_AU15-100_AU2-33_AU25-33_AU26-66	emotion	Verrassing	0.3817588838932077	0.9280904214847396
id-1367_AU17-66_AU9-100	1	1	2	7	6	train	id-1367_AU17-66_AU9-100	emotion	Boos	0.3039147993049853	0.9114892625402716
id-1279_AU1-100_AU13-66_AU22-100_AU27i-100	1	1	2	7	7	test_extra	id-1279_AU1-100_AU13-66_AU22-100_AU27i-100	emotion	Verrassing	0.30867513761256965	2.5116484612462955
id-1264_AU26-100_AU6-66_AU7-33	1	1	2	7	8	test_extra	id-1264_AU26-100_AU6-66_AU7-33	emotion	Verrassing	0.21710343012768304	0.7029274873129907
id-1361_AU12-33_AU13-100_AU4-100	1	1	2	7	9	test_extra	id-1361_AU12-33_AU13-100_AU4-100	emotion	Blij	0.13518373707605233	0.8947803411028872
id-1373_AU1-33_AU11-100_AU25-33_AU5-33	1	1	2	7	10	test_extra	id-1373_AU1-33_AU11-100_AU25-33_AU5-33	emotion	Bang	0.6651271159355682	0.8362583655543858
id-1376_AU14-33_AU17-33_AU2-100_AU27i-33_AU43-66	1	1	2	7	11	test_extra	id-1376_AU14-33_AU17-33_AU2-100_AU27i-33_AU43-66	emotion	Blij	0.5538483220811092	0.8195271067961585
id-1356_AU2-33_AU24-100_AU7-100	1	1	2	7	12	train	id-1356_AU2-33_AU24-100_AU7-100	emotion	Walging	0.1050421661938132	2.4781391560882184
id-1297_AU10Open-100_AU6-100	1	1	2	7	13	test_extra	id-1297_AU10Open-100_AU6-100	emotion	Boos	0.35063575223835913	2.16150035573628
id-1370_AU12-33_AU24-33_AU26-33	1	1	2	7	14	test_extra	id-1370_AU12-33_AU24-33_AU26-33	emotion	Blij	0.3330238825515059	0.7946225007472094
id-1366_AU20-100_AU22-66_AU4-100	1	1	2	7	15	train	id-1366_AU20-100_AU22-66_AU4-100	emotion	Walging	0.2702100545291906	1.878053610180359
id-1296_AU12-100_AU9-33	1	1	2	7	16	train	id-1296_AU12-100_AU9-33	emotion	Boos	0.40163212942039	0.619540750672968
id-1347_AU13-100_AU14-66_AU17-100_AU27i-66_AU7-100	1	1	2	7	17	test	id-1347_AU13-100_AU14-66_AU17-100_AU27i-66_AU7-100	emotion	Blij	0.7391065069917441	0.6530711857285496
id-1293_AU1-33_AU22-33_AU27i-100	1	1	2	7	18	train	id-1293_AU1-33_AU22-33_AU27i-100	emotion	Verrassing	0.2737730873075533	0.5445193415544054
id-1335_AU1-66_AU20-100_AU4-66_AU5-33	1	1	2	7	19	train	id-1335_AU1-66_AU20-100_AU4-66_AU5-33	emotion	Walging	0.1405307267719275	2.3864652725569613
id-1306_AU11-33_AU16Open-66	1	1	2	7	20	test_extra	id-1306_AU11-33_AU16Open-66	emotion	Blij	0.048287124261215474	1.0029660342879652
id-1341_AU1-33_AU15-33_AU2-66_AU4-33	1	1	2	7	21	test	id-1341_AU1-33_AU15-33_AU2-66_AU4-33	emotion	Verdrietig	0.05355321032044336	2.8448793648731225
id-1361_AU12-33_AU15-33_AU16Open-100_AU6-66	1	1	2	7	22	test	id-1361_AU12-33_AU15-33_AU16Open-100_AU6-66	emotion	Blij	0.3274715368183183	0.8947420054264512
id-1356_AU15-100	1	1	2	7	23	train	id-1356_AU15-100	emotion	Geen van allen	0.0	2.8531876416636814
id-1297_AU10Open-100_AU13-100_AU16Open-100_AU22-66_AU25-100	1	1	2	7	24	test_extra	id-1297_AU10Open-100_AU13-100_AU16Open-100_AU22-66_AU25-100	emotion	Boos	0.15915573339851682	1.0612589013471734
id-1310_AU1-100_AU24-100_AU5-33	1	1	2	7	25	train	id-1310_AU1-100_AU24-100_AU5-33	emotion	Verrassing	0.11943918429463578	3.4032523746245715
id-1344_AU13-66_AU14-66_AU24-33_AU9-33	1	1	2	7	26	test	id-1344_AU13-66_AU14-66_AU24-33_AU9-33	emotion	Boos	0.06930656444009503	1.1945457086530948
id-1306_AU17-100_AU5-66	1	1	2	7	27	test_extra	id-1306_AU17-100_AU5-66	emotion	Bang	0.12424685157402646	0.7778604527047719
id-1309_AU15-66_AU43-100	1	1	2	7	28	train	id-1309_AU15-66_AU43-100	emotion	Blij	0.1252815205838268	0.7281393824814586
id-1356_AU13-100_AU15-33_AU16Open-100	1	1	2	7	29	test_extra	id-1356_AU13-100_AU15-33_AU16Open-100	emotion	Blij	0.3606615896659004	0.4696524825667439
id-1335_AU11-100_AU16Open-100_AU5-33	1	1	2	7	30	train	id-1335_AU11-100_AU16Open-100_AU5-33	emotion	Walging	0.09881150045264572	0.6362596333474357
id-1339_AU10Open-66_AU20-66_AU27i-100	1	1	2	7	31	test_extra	id-1339_AU10Open-66_AU20-66_AU27i-100	emotion	Verrassing	0.3195876191913781	0.6030533913344698
id-1366_AU14-33_AU2-100_AU26-100_AU27i-100	1	1	2	7	32	test	id-1366_AU14-33_AU2-100_AU26-100_AU27i-100	emotion	Blij	0.22749143744732625	0.7781330284196883
id-1273_AU12-100_AU16Open-100_AU5-66	1	1	2	7	33	train	id-1273_AU12-100_AU16Open-100_AU5-66	emotion	Blij	0.8286631560889076	0.6530183609775122
id-1290_AU1-66_AU22-33_AU25-66	1	1	2	7	34	test_extra	id-1290_AU1-66_AU22-33_AU25-66	emotion	Verrassing	0.6099149419361666	1.3693062842430663
id-1302_AU1-33_AU22-33_AU24-66_AU43-100_AU9-66	1	1	2	7	35	test_extra	id-1302_AU1-33_AU22-33_AU24-66_AU43-100_AU9-66	emotion	Walging	0.04970859145449643	0.9029588199373392
id-1269_AU14-100_AU20-100_AU5-66	1	1	2	7	36	test_extra	id-1269_AU14-100_AU20-100_AU5-66	emotion	Blij	0.2520122552138924	0.7196457662776083
id-1341_AU14-33_AU2-33	1	1	2	8	1	test_extra	id-1341_AU14-33_AU2-33	valence	0.6766442791668373		0.9853566772453632
id-1341_AU14-33_AU2-33	1	1	2	8	1	test_extra	id-1341_AU14-33_AU2-33	arousal	0.024457022138560384		0.9853566772453632
id-1311_AU16Open-100_AU43-100_AU6-66_AU9-100	1	1	2	8	2	test	id-1311_AU16Open-100_AU43-100_AU6-66_AU9-100	valence	-0.3994646949298196		0.8687911674605857
id-1311_AU16Open-100_AU43-100_AU6-66_AU9-100	1	1	2	8	2	test	id-1311_AU16Open-100_AU43-100_AU6-66_AU9-100	arousal	0.11956766378851742		0.8687911674605857
id-1311_AU24-66	1	1	2	8	3	test_extra	id-1311_AU24-66	valence	0.720123429635389		0.5268333131589316
id-1311_AU24-66	1	1	2	8	3	test_extra	id-1311_AU24-66	arousal	-0.5462068277611818		0.5268333131589316
id-1362_AU1-100_AU26-66	1	1	2	8	4	test_extra	id-1362_AU1-100_AU26-66	valence	-0.11413276997994845		2.4356212688744563
id-1362_AU1-100_AU26-66	1	1	2	8	4	test_extra	id-1362_AU1-100_AU26-66	arousal	0.33424596922699185		2.4356212688744563
id-1376_AU10Open-100_AU11-66_AU13-100_AU6-100	1	1	2	8	5	train	id-1376_AU10Open-100_AU11-66_AU13-100_AU6-100	valence	0.4375089515898024		0.7436541626957478
id-1376_AU10Open-100_AU11-66_AU13-100_AU6-100	1	1	2	8	5	train	id-1376_AU10Open-100_AU11-66_AU13-100_AU6-100	arousal	0.01902212832999141		0.7436541626957478
id-1360_AU1-100_AU11-66	1	1	2	8	6	test	id-1360_AU1-100_AU11-66	valence	0.06793617260711217		3.4271801755658085
id-1360_AU1-100_AU11-66	1	1	2	8	6	test	id-1360_AU1-100_AU11-66	arousal	0.26902724352416424		3.4271801755658085
id-1362_AU12-66_AU17-100_AU22-100	1	1	2	8	7	test_extra	id-1362_AU12-66_AU17-100_AU22-100	valence	0.3885949073126817		0.8187751841996942
id-1362_AU12-66_AU17-100_AU22-100	1	1	2	8	7	test_extra	id-1362_AU12-66_AU17-100_AU22-100	arousal	0.17935149568277614		0.8187751841996942
id-1341_AU14-33_AU4-100_AU7-66	1	1	2	8	8	train	id-1341_AU14-33_AU4-100_AU7-66	valence	0.17391660187420716		0.5269884669978637
id-1341_AU14-33_AU4-100_AU7-66	1	1	2	8	8	train	id-1341_AU14-33_AU4-100_AU7-66	arousal	-0.201091070917052		0.5269884669978637
id-1264_AU11-33_AU13-33_AU22-33	1	1	2	8	9	test_extra	id-1264_AU11-33_AU13-33_AU22-33	valence	0.1847863894913451		0.893747390833596
id-1264_AU11-33_AU13-33_AU22-33	1	1	2	8	9	test_extra	id-1264_AU11-33_AU13-33_AU22-33	arousal	-0.4755532082497852		0.893747390833596
id-1269_AU10Open-33	1	1	2	8	10	test_extra	id-1269_AU10Open-33	valence	-0.9049098191267342		1.2271814433588588
id-1269_AU10Open-33	1	1	2	8	10	test_extra	id-1269_AU10Open-33	arousal	0.19837362401276756		1.2271814433588588
id-1309_AU11-66_AU24-66	1	1	2	8	11	test	id-1309_AU11-66_AU24-66	valence	-0.6847966198796908		1.5520201543022267
id-1309_AU11-66_AU24-66	1	1	2	8	11	test	id-1309_AU11-66_AU24-66	arousal	-0.30707150018414703		1.5520201543022267
id-1291_AU10Open-33_AU11-100_AU15-100	1	1	2	8	12	train	id-1291_AU10Open-33_AU11-100_AU15-100	valence	-0.8478434341367599		1.0099047916864947
id-1291_AU10Open-33_AU11-100_AU15-100	1	1	2	8	12	train	id-1291_AU10Open-33_AU11-100_AU15-100	arousal	0.3858774604083972		1.0099047916864947
id-1260_AU13-33_AU4-66	1	1	2	8	13	train	id-1260_AU13-33_AU4-66	valence	-0.28533192494987114		1.0187494660931409
id-1260_AU13-33_AU4-66	1	1	2	8	13	train	id-1260_AU13-33_AU4-66	arousal	-0.22283064615132792		1.0187494660931409
id-1363_AU25-33_AU27i-66	1	1	2	8	14	train	id-1363_AU25-33_AU27i-66	valence	-0.03804425665998282		1.910541133727748
id-1363_AU25-33_AU27i-66	1	1	2	8	14	train	id-1363_AU25-33_AU27i-66	arousal	-0.22283064615132792		1.910541133727748
id-1309_AU26-33_AU5-66	1	1	2	8	15	test_extra	id-1309_AU26-33_AU5-66	valence	-0.11956766378851742		1.2603055806175691
id-1309_AU26-33_AU5-66	1	1	2	8	15	test_extra	id-1309_AU26-33_AU5-66	arousal	0.2798970311413021		1.2603055806175691
id-1291_AU1-100_AU16Open-100_AU6-33	1	1	2	8	16	test_extra	id-1291_AU1-100_AU16Open-100_AU6-33	valence	0.03260936285141384		2.4855300933559192
id-1291_AU1-100_AU16Open-100_AU6-33	1	1	2	8	16	test_extra	id-1291_AU1-100_AU16Open-100_AU6-33	arousal	0.3913123542169661		2.4855300933559192
id-1310_AU11-33_AU26-33	1	1	2	8	17	test_extra	id-1310_AU11-33_AU26-33	valence	0.01630468142570692		1.6270207353754813
id-1310_AU11-33_AU26-33	1	1	2	8	17	test_extra	id-1310_AU11-33_AU26-33	arousal	-0.5733812968040267		1.6270207353754813
id-1377_AU1-100_AU13-33_AU26-33_AU9-33	1	1	2	8	18	test_extra	id-1377_AU1-100_AU13-33_AU26-33_AU9-33	valence	-0.9456715226910016		0.7435448909254774
id-1377_AU1-100_AU13-33_AU26-33_AU9-33	1	1	2	8	18	test_extra	id-1377_AU1-100_AU13-33_AU26-33_AU9-33	arousal	0.40761703564267293		0.7435448909254774
id-1294_AU11-66_AU43-33_AU5-33	1	1	2	8	19	test_extra	id-1294_AU11-66_AU43-33_AU5-33	valence	-0.4674008675369317		1.060359069451806
id-1294_AU11-66_AU43-33_AU5-33	1	1	2	8	19	test_extra	id-1294_AU11-66_AU43-33_AU5-33	arousal	-0.13858979211850886		1.060359069451806
id-1260_AU17-33_AU24-100_AU6-33	1	1	2	8	20	test_extra	id-1260_AU17-33_AU24-100_AU6-33	valence	-0.1820689425870606		1.3020244557465048
id-1260_AU17-33_AU24-100_AU6-33	1	1	2	8	20	test_extra	id-1260_AU17-33_AU24-100_AU6-33	arousal	-0.5760987437083112		1.3020244557465048
id-1297_AU11-100_AU24-33	1	1	2	8	21	test	id-1297_AU11-100_AU24-33	valence	-0.725558323443958		0.6938377060650964
id-1297_AU11-100_AU24-33	1	1	2	8	21	test	id-1297_AU11-100_AU24-33	arousal	0.2472876682898883		0.6938377060650964
id-1342_AU11-33_AU4-100_AU43-100_AU5-33	1	1	2	8	22	train	id-1342_AU11-33_AU4-100_AU43-100_AU5-33	valence	0.7608851331996563		0.7102758629225718
id-1342_AU11-33_AU4-100_AU43-100_AU5-33	1	1	2	8	22	train	id-1342_AU11-33_AU4-100_AU43-100_AU5-33	arousal	-0.6386000225068544		0.7102758629225718
id-1279_AU13-66_AU20-33	1	1	2	8	23	test_extra	id-1279_AU13-66_AU20-33	valence	-0.0054348938085689745		2.268713469798968
id-1279_AU13-66_AU20-33	1	1	2	8	23	test_extra	id-1279_AU13-66_AU20-33	arousal	-0.2663097966198797		2.268713469798968
id-1335_AU43-66_AU5-66	1	1	2	8	24	test	id-1335_AU43-66_AU5-66	valence	0.7690374739125099		0.8020529811128654
id-1335_AU43-66_AU5-66	1	1	2	8	24	test	id-1335_AU43-66_AU5-66	arousal	-0.8070817305724926		0.8020529811128654
id-1377_AU10Open-66_AU16Open-66_AU26-100	1	1	2	8	25	train	id-1377_AU10Open-66_AU16Open-66_AU26-100	valence	-0.5543591684740353		1.101952976312532
id-1377_AU10Open-66_AU16Open-66_AU26-100	1	1	2	8	25	train	id-1377_AU10Open-66_AU16Open-66_AU26-100	arousal	0.2717446904284487		1.101952976312532
id-1354_AU1-66_AU10Open-100	1	1	2	8	26	test	id-1354_AU1-66_AU10Open-100	valence	-0.8614306686581823		0.9604031705712259
id-1354_AU1-66_AU10Open-100	1	1	2	8	26	test	id-1354_AU1-66_AU10Open-100	arousal	0.11956766378851742		0.9604031705712259
id-1377_AU10Open-100_AU22-66_AU4-66_AU5-100_AU7-100	1	1	2	8	27	test_extra	id-1377_AU10Open-100_AU22-66_AU4-66_AU5-100_AU7-100	valence	-0.2581574559070263		1.6855759150530505
id-1377_AU10Open-100_AU22-66_AU4-66_AU5-100_AU7-100	1	1	2	8	27	test_extra	id-1377_AU10Open-100_AU22-66_AU4-66_AU5-100_AU7-100	arousal	0.312506393992716		1.6855759150530505
id-1347_AU10Open-100_AU25-100	1	1	2	8	28	test_extra	id-1347_AU10Open-100_AU25-100	valence	-0.8478434341367599		0.8519666352840432
id-1347_AU10Open-100_AU25-100	1	1	2	8	28	test_extra	id-1347_AU10Open-100_AU25-100	arousal	0.3206587347055695		0.8519666352840432
id-1335_AU11-66_AU14-100	1	1	2	8	29	train	id-1335_AU11-66_AU14-100	valence	0.7608851331996563		0.8352335653889895
id-1335_AU11-66_AU14-100	1	1	2	8	29	train	id-1335_AU11-66_AU14-100	arousal	-0.14674213283136228		0.8352335653889895
id-1380_AU1-66_AU14-100_AU17-66_AU9-33	1	1	2	8	30	test_extra	id-1380_AU1-66_AU14-100_AU17-66_AU9-33	valence	0.0054348938085689745		1.1603768487530033
id-1380_AU1-66_AU14-100_AU17-66_AU9-33	1	1	2	8	30	test_extra	id-1380_AU1-66_AU14-100_AU17-66_AU9-33	arousal	0.29348426566272456		1.1603768487530033
id-1315_AU27i-66	1	1	2	8	31	train	id-1315_AU27i-66	valence	-0.0054348938085689745		1.7102764666342412
id-1315_AU27i-66	1	1	2	8	31	train	id-1315_AU27i-66	arousal	0.5896859782297337		1.7102764666342412
id-1279_AU10Open-100_AU24-33	1	1	2	8	32	test_extra	id-1279_AU10Open-100_AU24-33	valence	0.0027174469042844872		0.6019277713603515
id-1279_AU10Open-100_AU24-33	1	1	2	8	32	test_extra	id-1279_AU10Open-100_AU24-33	arousal	-0.2092434116299055		0.6019277713603515
id-1361_AU10Open-33_AU11-100_AU13-66_AU2-100	1	1	2	8	33	test_extra	id-1361_AU10Open-33_AU11-100_AU13-66_AU2-100	valence	0.057066384989974225		2.060567651751626
id-1361_AU10Open-33_AU11-100_AU13-66_AU2-100	1	1	2	8	33	test_extra	id-1361_AU10Open-33_AU11-100_AU13-66_AU2-100	arousal	0.29891915947129355		2.060567651751626
id-1307_AU10Open-66_AU17-33_AU22-33_AU9-100	1	1	2	8	34	test	id-1307_AU10Open-66_AU17-33_AU22-33_AU9-100	valence	-0.8097991774767771		0.7352130693871004
id-1307_AU10Open-66_AU17-33_AU22-33_AU9-100	1	1	2	8	34	test	id-1307_AU10Open-66_AU17-33_AU22-33_AU9-100	arousal	0.7962119429553548		0.7352130693871004
id-1370_AU25-66	1	1	2	8	35	train	id-1370_AU25-66	valence	0.7011013013053977		0.8686016020692477
id-1370_AU25-66	1	1	2	8	35	train	id-1370_AU25-66	arousal	-0.92664939436101		0.8686016020692477
id-1344_AU12-66_AU22-66_AU26-100_AU27i-33	1	1	2	8	36	test_extra	id-1344_AU12-66_AU22-66_AU26-100_AU27i-33	valence	-0.0815234071285346		1.2184964506304825
id-1344_AU12-66_AU22-66_AU26-100_AU27i-33	1	1	2	8	36	test_extra	id-1344_AU12-66_AU22-66_AU26-100_AU27i-33	arousal	0.3831600135041127		1.2184964506304825
id-1294_AU11-66_AU20-33_AU25-33	1	1	3	9	1	test	id-1294_AU11-66_AU20-33_AU25-33	emotion	Blij	0.05791442334098864	1.428126493243326
id-1296_AU1-66_AU11-33	1	1	3	9	2	train	id-1296_AU1-66_AU11-33	emotion	Verrassing	0.19647390622866245	1.169840025524536
id-1306_AU22-66_AU25-33_AU43-33	1	1	3	9	3	test_extra	id-1306_AU22-66_AU25-33_AU43-33	emotion	Blij	0.19826856739645016	0.7530630054388894
id-1293_AU1-100_AU12-33_AU13-33_AU22-100	1	1	3	9	4	test_extra	id-1293_AU1-100_AU12-33_AU13-33_AU22-100	emotion	Blij	0.3086116980850573	0.6375690834556735
id-1290_AU11-33_AU5-66	1	1	3	9	5	test_extra	id-1290_AU11-33_AU5-66	emotion	Bang	0.25316300109984674	2.7225212438497692
id-1345_AU14-100	1	1	3	9	6	test_extra	id-1345_AU14-100	emotion	Blij	0.4166527562641128	1.494770198751212
id-1345_AU10Open-66_AU16Open-66_AU22-33_AU43-33	1	1	3	9	7	test_extra	id-1345_AU10Open-66_AU16Open-66_AU22-33_AU43-33	emotion	Walging	0.15320939908828127	1.5531608670626156
id-1310_AU16Open-100_AU27i-66_AU6-33_AU7-66	1	1	3	9	8	test_extra	id-1310_AU16Open-100_AU27i-66_AU6-33_AU7-66	emotion	Bang	0.6486139521488226	1.1947096163075912
id-1361_AU13-66_AU6-33	1	1	3	9	9	test_extra	id-1361_AU13-66_AU6-33	emotion	Blij	0.2153840978483769	0.7283561148869921
id-1279_AU22-33_AU26-33_AU4-33	1	1	3	9	10	test	id-1279_AU22-33_AU26-33_AU4-33	emotion	Bang	0.19347223360034405	1.7866480763786967
id-1291_AU10Open-66_AU13-33_AU4-33_AU6-100	1	1	3	9	11	test_extra	id-1291_AU10Open-66_AU13-33_AU4-33_AU6-100	emotion	Walging	0.5611973425177431	1.1615480489399488
id-1360_AU13-100_AU2-66_AU24-33	1	1	3	9	12	test_extra	id-1360_AU13-100_AU2-66_AU24-33	emotion	Verrassing	0.07321419621173053	1.6949343478918308
id-1366_AU16Open-100_AU43-100	1	1	3	9	13	test_extra	id-1366_AU16Open-100_AU43-100	emotion	Verrassing	0.20286670279441474	1.2282053379567517
id-1269_AU12-100_AU2-66_AU20-33_AU43-66	1	1	3	9	14	test_extra	id-1269_AU12-100_AU2-66_AU20-33_AU43-66	emotion	Blij	0.5246233463626285	0.6281037936914801
id-1296_AU17-66_AU26-66_AU4-66	1	1	3	9	15	test_extra	id-1296_AU17-66_AU26-66_AU4-66	emotion	Verdrietig	0.4784829924231238	1.030407435793677
id-1289_AU14-33_AU25-100_AU27i-66_AU7-33	1	1	3	9	16	test_extra	id-1289_AU14-33_AU25-100_AU27i-66_AU7-33	emotion	Verrassing	0.3068107125825128	0.8970448627023871
id-1366_AU14-33_AU25-33	1	1	3	9	17	test_extra	id-1366_AU14-33_AU25-33	emotion	Blij	0.216566147797382	0.6298213527297776
id-1285_AU11-66_AU4-33	1	1	3	9	18	train	id-1285_AU11-66_AU4-33	emotion	Walging	0.3112583927468675	0.9378714523263624
id-1266_AU13-66_AU17-100_AU2-100_AU9-33	1	1	3	9	19	test	id-1266_AU13-66_AU17-100_AU2-100_AU9-33	emotion	Blij	0.09114770209818072	1.0388246825004899
id-1260_AU12-33	1	1	3	9	20	test_extra	id-1260_AU12-33	emotion	Blij	0.08029562297138898	0.6220229102455049
id-1362_AU6-100	1	1	3	9	21	train	id-1362_AU6-100	emotion	Blij	0.11356471561418853	0.7960548061328154
id-1269_AU15-66_AU16Open-66_AU26-33_AU27i-100	1	1	3	9	22	test	id-1269_AU15-66_AU16Open-66_AU26-33_AU27i-100	emotion	Verrassing	0.3863308108922776	0.6531726092489407
id-1273_AU1-33_AU25-100_AU4-33	1	1	3	9	23	test_extra	id-1273_AU1-33_AU25-100_AU4-33	emotion	Blij	0.0274253390453707	0.6367570915717806
id-1323_AU11-33_AU16Open-33_AU2-33_AU27i-100	1	1	3	9	24	train	id-1323_AU11-33_AU16Open-33_AU2-33_AU27i-100	emotion	Bang	0.16373540650105847	0.8697504649335315
id-1295_AU11-66_AU24-66_AU43-100_AU6-33	1	1	3	9	25	test_extra	id-1295_AU11-66_AU24-66_AU43-100_AU6-33	emotion	Walging	0.18087420613574304	0.8385914084010437
id-1373_AU15-33_AU16Open-33_AU2-33_AU4-100	1	1	3	9	26	test_extra	id-1373_AU15-33_AU16Open-33_AU2-33_AU4-100	emotion	Geen van allen	0.0	2.6199654616684707
id-1290_AU10Open-33_AU14-66_AU24-66	1	1	3	9	27	test	id-1290_AU10Open-33_AU14-66_AU24-66	emotion	Blij	0.16904680405363068	0.8387251304848178
id-1344_AU1-66_AU12-66_AU24-33_AU27i-33	1	1	3	9	28	test_extra	id-1344_AU1-66_AU12-66_AU24-33_AU27i-33	emotion	Verrassing	0.2127706261135959	0.7280397700942558
id-1295_AU10Open-66_AU20-66_AU27i-66	1	1	3	9	29	train	id-1295_AU10Open-66_AU20-66_AU27i-66	emotion	Boos	0.03608737067968767	0.6280440262598859
id-1318_AU13-33_AU20-66_AU5-100_AU6-66	1	1	3	9	30	test_extra	id-1318_AU13-33_AU20-66_AU5-100_AU6-66	emotion	Walging	0.2148575667760884	1.036541445846524
id-1380_AU2-33_AU25-100_AU7-33	1	1	3	9	31	train	id-1380_AU2-33_AU25-100_AU7-33	emotion	Geen van allen	0.0	1.203008535574554
id-1363_AU10Open-33_AU14-66_AU9-33	1	1	3	9	32	train	id-1363_AU10Open-33_AU14-66_AU9-33	emotion	Blij	0.15546383935173955	0.4967389017456298
id-1339_AU10Open-100_AU12-33_AU20-100_AU27i-33	1	1	3	9	33	test	id-1339_AU10Open-100_AU12-33_AU20-100_AU27i-33	emotion	Blij	0.7909694021729127	0.6946524146496813
id-1296_AU12-66_AU6-66	1	1	3	9	34	train	id-1296_AU12-66_AU6-66	emotion	Blij	0.2824171850945362	0.6366604977411043
id-1294_AU13-66_AU15-33_AU24-100_AU4-66	1	1	3	9	35	train	id-1294_AU13-66_AU15-33_AU24-100_AU4-66	emotion	Walging	0.100866943305424	0.8948274305948871
id-1323_AU12-66_AU16Open-33_AU7-66_AU9-100	1	1	3	9	36	test	id-1323_AU12-66_AU16Open-33_AU7-66_AU9-100	emotion	Blij	0.09081610791753066	0.7614404071919125
id-1280_AU1-66_AU17-100_AU26-33	1	1	3	10	1	train	id-1280_AU1-66_AU17-100_AU26-33	valence	-0.29891915947129355		1.4355216564872535
id-1280_AU1-66_AU17-100_AU26-33	1	1	3	10	1	train	id-1280_AU1-66_AU17-100_AU26-33	arousal	-0.05434893808568974		1.4355216564872535
id-1270_AU11-100_AU15-100_AU20-66_AU7-66	1	1	3	10	2	test	id-1270_AU11-100_AU15-100_AU20-66_AU7-66	valence	-0.7174059827311046		0.7186749982865877
id-1270_AU11-100_AU15-100_AU20-66_AU7-66	1	1	3	10	2	test	id-1270_AU11-100_AU15-100_AU20-66_AU7-66	arousal	0.14945957973564675		0.7186749982865877
id-1309_AU17-100_AU20-100_AU6-100	1	1	3	10	3	train	id-1309_AU17-100_AU20-100_AU6-100	valence	-0.5842510844211647		1.735453346538634
id-1309_AU17-100_AU20-100_AU6-100	1	1	3	10	3	train	id-1309_AU17-100_AU20-100_AU6-100	arousal	0.23370043376846586		1.735453346538634
id-1378_AU12-33_AU9-66	1	1	3	10	4	test_extra	id-1378_AU12-33_AU9-66	valence	0.5217498056226214		0.9687521978867152
id-1378_AU12-33_AU9-66	1	1	3	10	4	test_extra	id-1378_AU12-33_AU9-66	arousal	-0.201091070917052		0.9687521978867152
id-1362_AU5-33_AU6-66_AU7-33	1	1	3	10	5	test	id-1362_AU5-33_AU6-66_AU7-33	valence	0.26902724352416424		0.9351306024054792
id-1362_AU5-33_AU6-66_AU7-33	1	1	3	10	5	test	id-1362_AU5-33_AU6-66_AU7-33	arousal	0.04891404427712077		0.9351306024054792
id-1345_AU14-100_AU16Open-100	1	1	3	10	6	train	id-1345_AU14-100_AU16Open-100	valence	0.3260936285141384		0.7769998620515253
id-1345_AU14-100_AU16Open-100	1	1	3	10	6	train	id-1345_AU14-100_AU16Open-100	arousal	0.13858979211850886		0.7769998620515253
id-1318_AU15-100_AU4-33_AU43-100_AU9-66	1	1	3	10	7	test_extra	id-1318_AU15-100_AU4-33_AU43-100_AU9-66	valence	-0.7527327924868029		0.7853884324667888
id-1318_AU15-100_AU4-33_AU43-100_AU9-66	1	1	3	10	7	test_extra	id-1318_AU15-100_AU4-33_AU43-100_AU9-66	arousal	0.7282757703482424		0.7853884324667888
id-1362_AU13-100_AU15-66_AU43-100_AU7-33	1	1	3	10	8	test_extra	id-1362_AU13-100_AU15-66_AU43-100_AU7-33	valence	0.14674213283136228		0.6437046027876931
id-1362_AU13-100_AU15-66_AU43-100_AU7-33	1	1	3	10	8	test_extra	id-1362_AU13-100_AU15-66_AU43-100_AU7-33	arousal	-0.2418527744813193		0.6437046027876931
id-1274_AU2-33_AU20-100_AU25-66_AU6-66	1	1	3	10	9	test_extra	id-1274_AU2-33_AU20-100_AU25-66_AU6-66	valence	-0.1250025575970864		0.4936509177478001
id-1274_AU2-33_AU20-100_AU25-66_AU6-66	1	1	3	10	9	test_extra	id-1274_AU2-33_AU20-100_AU25-66_AU6-66	arousal	-0.2282655399598969		0.4936509177478001
id-1260_AU12-66_AU25-33	1	1	3	10	10	test	id-1260_AU12-66_AU25-33	valence	0.2500051151941728		0.902052347213612
id-1260_AU12-66_AU25-33	1	1	3	10	10	test	id-1260_AU12-66_AU25-33	arousal	-0.11141532307566396		0.902052347213612
id-1280_AU11-33_AU17-66_AU2-66_AU26-66_AU9-66	1	1	3	10	11	test	id-1280_AU11-33_AU17-66_AU2-66_AU26-66_AU9-66	valence	-0.5652289560911733		0.9020272931902582
id-1280_AU11-33_AU17-66_AU2-66_AU26-66_AU9-66	1	1	3	10	11	test	id-1280_AU11-33_AU17-66_AU2-66_AU26-66_AU9-66	arousal	-0.1847863894913451		0.9020272931902582
id-1366_AU15-100_AU16Open-33_AU27i-33	1	1	3	10	12	train	id-1366_AU15-100_AU16Open-33_AU27i-33	valence	-0.1657642611613537		0.7435153090646054
id-1366_AU15-100_AU16Open-33_AU27i-33	1	1	3	10	12	train	id-1366_AU15-100_AU16Open-33_AU27i-33	arousal	0.3858774604083972		0.7435153090646054
id-1367_AU25-66_AU4-66_AU6-33	1	1	3	10	13	test	id-1367_AU25-66_AU4-66_AU6-33	valence	-0.8097991774767771		1.0103937979529292
id-1367_AU25-66_AU4-66_AU6-33	1	1	3	10	13	test	id-1367_AU25-66_AU4-66_AU6-33	arousal	-0.3505506506526989		1.0103937979529292
id-1280_AU12-100_AU14-33_AU27i-66_AU4-66	1	1	3	10	14	test_extra	id-1280_AU12-100_AU14-33_AU27i-66_AU4-66	valence	0.07880596022425011		0.8520276101389754
id-1280_AU12-100_AU14-33_AU27i-66_AU4-66	1	1	3	10	14	test_extra	id-1280_AU12-100_AU14-33_AU27i-66_AU4-66	arousal	0.4864229958669232		0.8520276101389754
id-1360_AU11-33_AU25-100	1	1	3	10	15	train	id-1360_AU11-33_AU25-100	valence	0.3587029913655523		0.6354410006388207
id-1360_AU11-33_AU25-100	1	1	3	10	15	train	id-1360_AU11-33_AU25-100	arousal	-0.7744723677210787		0.6354410006388207
id-1339_AU22-33_AU25-100_AU27i-100_AU4-66	1	1	3	10	16	test_extra	id-1339_AU22-33_AU25-100_AU27i-100_AU4-66	valence	-0.4972927834840611		1.2532249510313704
id-1339_AU22-33_AU25-100_AU27i-100_AU4-66	1	1	3	10	16	test_extra	id-1339_AU22-33_AU25-100_AU27i-100_AU4-66	arousal	-0.2527225620984573		1.2532249510313704
id-1270_AU5-33_AU7-100	1	1	3	10	17	train	id-1270_AU5-33_AU7-100	valence	-0.6005557658468715		1.8937763689827989
id-1270_AU5-33_AU7-100	1	1	3	10	17	train	id-1270_AU5-33_AU7-100	arousal	-0.41305192945124203		1.8937763689827989
id-1361_AU11-100_AU12-33_AU13-33	1	1	3	10	18	test_extra	id-1361_AU11-100_AU12-33_AU13-33	valence	0.13043745140565535		0.8603443388910819
id-1361_AU11-100_AU12-33_AU13-33	1	1	3	10	18	test_extra	id-1361_AU11-100_AU12-33_AU13-33	arousal	-0.33968086303556083		0.8603443388910819
id-1285_AU12-66_AU20-100	1	1	3	10	19	test_extra	id-1285_AU12-66_AU20-100	valence	0.36685533207840576		0.6853075653198175
id-1285_AU12-66_AU20-100	1	1	3	10	19	test_extra	id-1285_AU12-66_AU20-100	arousal	-0.2201131992470434		0.6853075653198175
id-1309_AU1-66_AU2-66_AU9-33	1	1	3	10	20	train	id-1309_AU1-66_AU2-66_AU9-33	valence	-0.625012787985432		0.6520418577292729
id-1309_AU1-66_AU2-66_AU9-33	1	1	3	10	20	train	id-1309_AU1-66_AU2-66_AU9-33	arousal	0.3777251196955437		0.6520418577292729
id-1380_AU12-66_AU4-33	1	1	3	10	21	train	id-1380_AU12-66_AU4-33	valence	-0.4782706551540697		1.010279696491125
id-1380_AU12-66_AU4-33	1	1	3	10	21	train	id-1380_AU12-66_AU4-33	arousal	0.3913123542169661		1.010279696491125
id-1309_AU20-100_AU25-66	1	1	3	10	22	train	id-1309_AU20-100_AU25-66	valence	-0.15761192044850025		3.4355566717513284
id-1309_AU20-100_AU25-66	1	1	3	10	22	train	id-1309_AU20-100_AU25-66	arousal	-0.05434893808568974		3.4355566717513284
id-1269_AU11-100_AU25-33_AU43-66	1	1	3	10	23	train	id-1269_AU11-100_AU25-33_AU43-66	valence	-0.1250025575970864		0.8104602665807761
id-1269_AU11-100_AU25-33_AU43-66	1	1	3	10	23	train	id-1269_AU11-100_AU25-33_AU43-66	arousal	-0.20380851782133647		0.8104602665807761
id-1339_AU17-100_AU2-33_AU22-33_AU25-33	1	1	3	10	24	train	id-1339_AU17-100_AU2-33_AU22-33_AU25-33	valence	0.4402263984940868		0.6603018376081309
id-1339_AU17-100_AU2-33_AU22-33_AU25-33	1	1	3	10	24	train	id-1339_AU17-100_AU2-33_AU22-33_AU25-33	arousal	-0.3260936285141384		0.6603018376081309
id-1318_AU22-100_AU26-100_AU27i-33_AU4-33_AU6-33	1	1	3	10	25	test	id-1318_AU22-100_AU26-100_AU27i-33_AU4-33_AU6-33	valence	-0.21739575234275896		0.9186541098715679
id-1318_AU22-100_AU26-100_AU27i-33_AU4-33_AU6-33	1	1	3	10	25	test	id-1318_AU22-100_AU26-100_AU27i-33_AU4-33_AU6-33	arousal	0.5978383189425871		0.9186541098715679
id-1302_AU14-100_AU17-33_AU26-66_AU9-33	1	1	3	10	26	test_extra	id-1302_AU14-100_AU17-33_AU26-66_AU9-33	valence	-0.7309932172525271		0.7771363008359913
id-1302_AU14-100_AU17-33_AU26-66_AU9-33	1	1	3	10	26	test_extra	id-1302_AU14-100_AU17-33_AU26-66_AU9-33	arousal	0.7962119429553548		0.7771363008359913
id-1291_AU20-33_AU24-100_AU25-33_AU27i-100	1	1	3	10	27	test	id-1291_AU20-33_AU24-100_AU25-33_AU27i-100	valence	-0.29620171256700906		0.8519699556964042
id-1291_AU20-33_AU24-100_AU25-33_AU27i-100	1	1	3	10	27	test	id-1291_AU20-33_AU24-100_AU25-33_AU27i-100	arousal	-0.21467830543847446		0.8519699556964042
id-1297_AU2-66_AU22-66	1	1	3	10	28	train	id-1297_AU2-66_AU22-66	valence	0.29891915947129355		1.76888598034202
id-1297_AU2-66_AU22-66	1	1	3	10	28	train	id-1297_AU2-66_AU22-66	arousal	-0.4674008675369317		1.76888598034202
id-1378_AU11-66_AU27i-33_AU4-100	1	1	3	10	29	train	id-1378_AU11-66_AU27i-33_AU4-100	valence	-0.2201131992470434		3.3106059119654674
id-1378_AU11-66_AU27i-33_AU4-100	1	1	3	10	29	train	id-1378_AU11-66_AU27i-33_AU4-100	arousal	0.21739575234275896		3.3106059119654674
id-1293_AU2-66_AU22-33_AU26-66_AU9-66	1	1	3	10	30	test_extra	id-1293_AU2-66_AU22-33_AU26-66_AU9-66	valence	-0.6358825756025699		0.7602266453486664
id-1293_AU2-66_AU22-33_AU26-66_AU9-66	1	1	3	10	30	test_extra	id-1293_AU2-66_AU22-33_AU26-66_AU9-66	arousal	0.08695830093710358		0.7602266453486664
id-1378_AU26-66_AU4-33_AU43-66	1	1	3	10	31	test_extra	id-1378_AU26-66_AU4-33_AU43-66	valence	-0.1440246859270778		1.0520526037926174
id-1378_AU26-66_AU4-33_AU43-66	1	1	3	10	31	test_extra	id-1378_AU26-66_AU4-33_AU43-66	arousal	-0.2744621373327332		1.0520526037926174
id-1274_AU14-100_AU25-100_AU27i-66_AU5-33	1	1	3	10	32	test_extra	id-1274_AU14-100_AU25-100_AU27i-66_AU5-33	valence	-0.16032936735278475		0.8270143360350629
id-1274_AU14-100_AU25-100_AU27i-66_AU5-33	1	1	3	10	32	test_extra	id-1274_AU14-100_AU25-100_AU27i-66_AU5-33	arousal	0.2608749028113107		0.8270143360350629
id-1344_AU10Open-66	1	1	3	10	33	train	id-1344_AU10Open-66	valence	-0.9212145005524409		0.6852203290181933
id-1344_AU10Open-66	1	1	3	10	33	train	id-1344_AU10Open-66	arousal	0.3315285223227074		0.6852203290181933
id-1266_AU1-33_AU10Open-100_AU11-66_AU12-100_AU14-33	1	1	3	10	34	test_extra	id-1266_AU1-33_AU10Open-100_AU11-66_AU12-100_AU14-33	valence	0.2880493718541556		1.3603278877562843
id-1266_AU1-33_AU10Open-100_AU11-66_AU12-100_AU14-33	1	1	3	10	34	test_extra	id-1266_AU1-33_AU10Open-100_AU11-66_AU12-100_AU14-33	arousal	0.201091070917052		1.3603278877562843
id-1335_AU13-33_AU4-66_AU9-33	1	1	3	10	35	test_extra	id-1335_AU13-33_AU4-66_AU9-33	valence	-0.32337618160985393		0.5604265342044528
id-1335_AU13-33_AU4-66_AU9-33	1	1	3	10	35	test_extra	id-1335_AU13-33_AU4-66_AU9-33	arousal	-0.17935149568277614		0.5604265342044528
id-1362_AU11-33_AU13-66_AU17-33_AU2-100_AU22-33	1	1	3	10	36	train	id-1362_AU11-33_AU13-66_AU17-33_AU2-100_AU22-33	valence	0.5299021463354749		1.8855272559103469
id-1362_AU11-33_AU13-66_AU17-33_AU2-100_AU22-33	1	1	3	10	36	train	id-1362_AU11-33_AU13-66_AU17-33_AU2-100_AU22-33	arousal	-0.17935149568277614		1.8855272559103469
id-1279_AU22-66_AU25-66_AU5-66	1	1	3	11	1	train	id-1279_AU22-66_AU25-66_AU5-66	emotion	Blij	0.11707565301809986	2.9033509305154435
id-1318_AU1-33_AU10Open-33_AU16Open-100_AU27i-100	1	1	3	11	2	test_extra	id-1318_AU1-33_AU10Open-33_AU16Open-100_AU27i-100	emotion	Walging	0.1730942006616798	1.05314049180015
id-1309_AU15-33	1	1	3	11	3	test	id-1309_AU15-33	emotion	Geen van allen	0.0	1.2031030164143883
id-1291_AU14-33_AU7-33	1	1	3	11	4	test_extra	id-1291_AU14-33_AU7-33	emotion	Blij	0.03509347235439827	0.8863627925402398
id-1377_AU17-66_AU24-33_AU4-100	1	1	3	11	5	test	id-1377_AU17-66_AU24-33_AU4-100	emotion	Bang	0.09237284987949924	3.3366098765382053
id-1260_AU22-100_AU25-100_AU26-100	1	1	3	11	6	test	id-1260_AU22-100_AU25-100_AU26-100	emotion	Verrassing	0.2140136022785021	2.4056934818181617
id-1280_AU26-66_AU9-100	1	1	3	11	7	test_extra	id-1280_AU26-66_AU9-100	emotion	Boos	0.10754610861327052	0.8947036697500153
id-1264_AU15-66_AU24-33_AU4-100	1	1	3	11	8	test_extra	id-1264_AU15-66_AU24-33_AU4-100	emotion	Boos	0.15804328644815724	1.1633006232423213
id-1289_AU10Open-66_AU15-66_AU43-100_AU7-100	1	1	3	11	9	test_extra	id-1289_AU10Open-66_AU15-66_AU43-100_AU7-100	emotion	Walging	0.6269928702352758	0.7031206749725243
id-1260_AU1-100_AU16Open-100_AU2-33	1	1	3	11	10	test_extra	id-1260_AU1-100_AU16Open-100_AU2-33	emotion	Verrassing	0.4718430891082846	1.086667908299205
id-1342_AU22-33	1	1	3	11	11	train	id-1342_AU22-33	emotion	Geen van allen	0.0	0.8280189118650014
id-1289_AU10Open-33_AU2-66_AU24-66	1	1	3	11	12	test_extra	id-1289_AU10Open-33_AU2-66_AU24-66	emotion	Walging	0.4657614909858344	0.7699934889715223
id-1342_AU1-100_AU11-33_AU43-33	1	1	3	11	13	test_extra	id-1342_AU1-100_AU11-33_AU43-33	emotion	Walging	0.2404246568970013	0.4863707615295425
id-1373_AU12-66_AU15-66_AU16Open-33	1	1	3	11	14	test_extra	id-1373_AU12-66_AU15-66_AU16Open-33	emotion	Blij	0.16139994874424266	0.7201124352177429
id-1315_AU2-100_AU24-100	1	1	3	11	15	train	id-1315_AU2-100_AU24-100	emotion	Verrassing	0.3014305983689603	2.6616752811260085
id-1291_AU15-66_AU20-66_AU7-100	1	1	3	11	16	train	id-1291_AU15-66_AU20-66_AU7-100	emotion	Verdrietig	0.16796724029833685	1.3115443813931051
id-1358_AU10Open-33_AU22-100_AU6-100	1	1	3	11	17	test_extra	id-1358_AU10Open-33_AU22-100_AU6-100	emotion	Walging	0.2240080042477592	1.2031313908501031
id-1354_AU16Open-66_AU27i-33_AU5-100	1	1	3	11	18	test_extra	id-1354_AU16Open-66_AU27i-33_AU5-100	emotion	Bang	0.7958271289867409	0.7365336881539406
id-1280_AU20-100_AU27i-66_AU9-33	1	1	3	11	19	test_extra	id-1280_AU20-100_AU27i-66_AU9-33	emotion	Boos	0.1346338117939945	0.7449379550671438
id-1270_AU10Open-33_AU16Open-33_AU22-100_AU7-66	1	1	3	11	20	train	id-1270_AU10Open-33_AU16Open-33_AU22-100_AU7-66	emotion	Boos	0.7139960178267554	0.7030437017656368
id-1285_AU11-33_AU20-66_AU4-66	1	1	3	11	21	train	id-1285_AU11-33_AU20-66_AU4-66	emotion	Verdrietig	0.26993388526309725	0.7864545868633286
id-1280_AU10Open-100_AU14-33_AU24-100_AU27i-33	1	1	3	11	22	test_extra	id-1280_AU10Open-100_AU14-33_AU24-100_AU27i-33	emotion	Verrassing	0.2419156809172965	1.4032931251458651
id-1380_AU10Open-33_AU13-33_AU16Open-100_AU22-33_AU43-66	1	1	3	11	23	test	id-1380_AU10Open-33_AU13-33_AU16Open-100_AU22-33_AU43-66	emotion	Blij	0.07693543524798536	0.8113546650747594
id-1354_AU10Open-66_AU13-66_AU15-33_AU2-66	1	1	3	11	24	test_extra	id-1354_AU10Open-66_AU13-66_AU15-33_AU2-66	emotion	Walging	0.299709646715611	0.7447622750387382
id-1342_AU1-100_AU14-100_AU15-66_AU5-100_AU7-100	1	1	3	11	25	test	id-1342_AU1-100_AU14-100_AU15-66_AU5-100_AU7-100	emotion	Blij	0.0713423165857285	0.569705880843685
id-1310_AU10Open-100_AU2-66_AU9-100	1	1	3	11	26	test_extra	id-1310_AU10Open-100_AU2-66_AU9-100	emotion	Boos	0.8037933618935202	0.8780837957510812
id-1311_AU11-100_AU16Open-33_AU24-100_AU5-100	1	1	3	11	27	test_extra	id-1311_AU11-100_AU16Open-33_AU24-100_AU5-100	emotion	Boos	0.594390174705809	1.0948590650750702
id-1358_AU11-100_AU12-100_AU14-100_AU16Open-66_AU6-100	1	1	3	11	28	test	id-1358_AU11-100_AU12-100_AU14-100_AU16Open-66_AU6-100	emotion	Blij	0.8736010698668125	0.7696928406767256
id-1297_AU14-66_AU25-100	1	1	3	11	29	train	id-1297_AU14-66_AU25-100	emotion	Blij	0.5342040467450406	0.7947350929298409
id-1377_AU14-33_AU5-100_AU6-66	1	1	3	11	30	test_extra	id-1377_AU14-33_AU5-100_AU6-66	emotion	Blij	0.19983511512119448	0.4864136250434967
id-1378_AU12-100_AU13-33_AU2-100_AU27i-100	1	1	3	11	31	test_extra	id-1378_AU12-100_AU13-33_AU2-100_AU27i-100	emotion	Blij	0.8574756857345234	0.9032274715264066
id-1311_AU13-33_AU17-66_AU26-33_AU6-100	1	1	3	11	32	test_extra	id-1311_AU13-33_AU17-66_AU26-33_AU6-100	emotion	Blij	0.13783596072664842	0.6196639078061708
id-1269_AU10Open-100_AU20-100_AU25-33	1	1	3	11	33	test_extra	id-1269_AU10Open-100_AU20-100_AU25-33	emotion	Walging	0.1403179805026519	1.3448665360047016
id-1294_AU11-100_AU2-100_AU24-33	1	1	3	11	34	train	id-1294_AU11-100_AU2-100_AU24-33	emotion	Verdrietig	0.09572687568740416	3.8702210579976963
id-1296_AU1-66_AU17-100_AU27i-33_AU4-66_AU5-100	1	1	3	11	35	test	id-1296_AU1-66_AU17-100_AU27i-33_AU4-66_AU5-100	emotion	Verdrietig	0.3555861274132861	0.6613646715904906
id-1342_AU13-33_AU24-100_AU26-100_AU4-66_AU9-66	1	1	3	11	36	test_extra	id-1342_AU13-33_AU24-100_AU26-100_AU4-66_AU9-66	emotion	Verrassing	0.1974689652277597	0.9197640333477466
id-1342_AU13-33_AU24-100_AU26-100_AU4-66_AU9-66	1	1	3	12	1	test_extra	id-1342_AU13-33_AU24-100_AU26-100_AU4-66_AU9-66	valence	-0.5135974649097681		2.3187022860438447
id-1342_AU13-33_AU24-100_AU26-100_AU4-66_AU9-66	1	1	3	12	1	test_extra	id-1342_AU13-33_AU24-100_AU26-100_AU4-66_AU9-66	arousal	0.1521770266399313		2.3187022860438447
id-1378_AU12-100_AU13-33_AU2-100_AU27i-100	1	1	3	12	2	test_extra	id-1378_AU12-100_AU13-33_AU2-100_AU27i-100	valence	0.24457022138560386		1.0355193623854575
id-1378_AU12-100_AU13-33_AU2-100_AU27i-100	1	1	3	12	2	test_extra	id-1378_AU12-100_AU13-33_AU2-100_AU27i-100	arousal	0.4809881020583541		1.0355193623854575
id-1269_AU10Open-100_AU20-100_AU25-33	1	1	3	12	3	test_extra	id-1269_AU10Open-100_AU20-100_AU25-33	valence	-0.4293566108769489		0.7521191026080487
id-1269_AU10Open-100_AU20-100_AU25-33	1	1	3	12	3	test_extra	id-1269_AU10Open-100_AU20-100_AU25-33	arousal	-0.2201131992470434		0.7521191026080487
id-1358_AU10Open-33_AU22-100_AU6-100	1	1	3	12	4	test_extra	id-1358_AU10Open-33_AU22-100_AU6-100	valence	-0.7880596022425012		0.8519083771298028
id-1358_AU10Open-33_AU22-100_AU6-100	1	1	3	12	4	test_extra	id-1358_AU10Open-33_AU22-100_AU6-100	arousal	0.8424085403281909		0.8519083771298028
id-1270_AU10Open-33_AU16Open-33_AU22-100_AU7-66	1	1	3	12	5	train	id-1270_AU10Open-33_AU16Open-33_AU22-100_AU7-66	valence	-0.948388969595286		0.9353123195469379
id-1270_AU10Open-33_AU16Open-33_AU22-100_AU7-66	1	1	3	12	5	train	id-1270_AU10Open-33_AU16Open-33_AU22-100_AU7-66	arousal	0.8125166243810616		0.9353123195469379
id-1354_AU10Open-66_AU13-66_AU15-33_AU2-66	1	1	3	12	6	test_extra	id-1354_AU10Open-66_AU13-66_AU15-33_AU2-66	valence	-0.8451259872324756		0.7352580458900775
id-1354_AU10Open-66_AU13-66_AU15-33_AU2-66	1	1	3	12	6	test_extra	id-1354_AU10Open-66_AU13-66_AU15-33_AU2-66	arousal	0.2744621373327332		0.7352580458900775
id-1289_AU10Open-66_AU15-66_AU43-100_AU7-100	1	1	3	12	7	test_extra	id-1289_AU10Open-66_AU15-66_AU43-100_AU7-100	valence	-0.8804527969881736		0.7436125066069508
id-1289_AU10Open-66_AU15-66_AU43-100_AU7-100	1	1	3	12	7	test_extra	id-1289_AU10Open-66_AU15-66_AU43-100_AU7-100	arousal	0.28261447804558665		0.7436125066069508
id-1279_AU22-66_AU25-66_AU5-66	1	1	3	12	8	train	id-1279_AU22-66_AU25-66_AU5-66	valence	0.7146885358268201		0.7853455689546536
id-1279_AU22-66_AU25-66_AU5-66	1	1	3	12	8	train	id-1279_AU22-66_AU25-66_AU5-66	arousal	0.13043745140565535		0.7853455689546536
id-1311_AU11-100_AU16Open-33_AU24-100_AU5-100	1	1	3	12	9	test_extra	id-1311_AU11-100_AU16Open-33_AU24-100_AU5-100	valence	-0.3451157568441299		0.8021100318437675
id-1311_AU11-100_AU16Open-33_AU24-100_AU5-100	1	1	3	12	9	test_extra	id-1311_AU11-100_AU16Open-33_AU24-100_AU5-100	arousal	0.3641378851741212		0.8021100318437675
id-1342_AU1-100_AU11-33_AU43-33	1	1	3	12	10	test_extra	id-1342_AU1-100_AU11-33_AU43-33	valence	-0.26902724352416424		0.6604787250580557
id-1342_AU1-100_AU11-33_AU43-33	1	1	3	12	10	test_extra	id-1342_AU1-100_AU11-33_AU43-33	arousal	0.19022128329991408		0.6604787250580557
id-1309_AU15-33	1	1	3	12	11	test	id-1309_AU15-33	valence	-0.13587234521422434		0.9102999510087102
id-1309_AU15-33	1	1	3	12	11	test	id-1309_AU15-33	arousal	-0.07608851331996565		0.9102999510087102
id-1296_AU1-66_AU17-100_AU27i-33_AU4-66_AU5-100	1	1	3	12	12	test	id-1296_AU1-66_AU17-100_AU27i-33_AU4-66_AU5-100	valence	-0.4592485268240783		0.6101750732977962
id-1296_AU1-66_AU17-100_AU27i-33_AU4-66_AU5-100	1	1	3	12	12	test	id-1296_AU1-66_AU17-100_AU27i-33_AU4-66_AU5-100	arousal	-0.30707150018414703		0.6101750732977962
id-1285_AU11-33_AU20-66_AU4-66	1	1	3	12	13	train	id-1285_AU11-33_AU20-66_AU4-66	valence	-0.11956766378851742		0.7352837036251003
id-1285_AU11-33_AU20-66_AU4-66	1	1	3	12	13	train	id-1285_AU11-33_AU20-66_AU4-66	arousal	-0.28533192494987114		0.7352837036251003
id-1318_AU1-33_AU10Open-33_AU16Open-100_AU27i-100	1	1	3	12	14	test_extra	id-1318_AU1-33_AU10Open-33_AU16Open-100_AU27i-100	valence	-0.4538136330155093		0.6104135393161414
id-1318_AU1-33_AU10Open-33_AU16Open-100_AU27i-100	1	1	3	12	14	test_extra	id-1318_AU1-33_AU10Open-33_AU16Open-100_AU27i-100	arousal	0.3858774604083972		0.6104135393161414
id-1291_AU15-66_AU20-66_AU7-100	1	1	3	12	15	train	id-1291_AU15-66_AU20-66_AU7-100	valence	-0.04347915046855179		0.6603546623573493
id-1291_AU15-66_AU20-66_AU7-100	1	1	3	12	15	train	id-1291_AU15-66_AU20-66_AU7-100	arousal	-0.30163660637557804		0.6603546623573493
id-1358_AU11-100_AU12-100_AU14-100_AU16Open-66_AU6-100	1	1	3	12	16	test	id-1358_AU11-100_AU12-100_AU14-100_AU16Open-66_AU6-100	valence	0.2418527744813193		1.0437959443261209
id-1358_AU11-100_AU12-100_AU14-100_AU16Open-66_AU6-100	1	1	3	12	16	test	id-1358_AU11-100_AU12-100_AU14-100_AU16Open-66_AU6-100	arousal	-0.16032936735278475		1.0437959443261209
id-1280_AU26-66_AU9-100	1	1	3	12	17	test_extra	id-1280_AU26-66_AU9-100	valence	-0.07065361951139666		0.5185506941015774
id-1280_AU26-66_AU9-100	1	1	3	12	17	test_extra	id-1280_AU26-66_AU9-100	arousal	0.3260936285141384		0.5185506941015774
id-1260_AU22-100_AU25-100_AU26-100	1	1	3	12	18	test	id-1260_AU22-100_AU25-100_AU26-100	valence	-0.0625012787985432		1.2769975981336756
id-1260_AU22-100_AU25-100_AU26-100	1	1	3	12	18	test	id-1260_AU22-100_AU25-100_AU26-100	arousal	0.28533192494987114		1.2769975981336756
id-1280_AU10Open-100_AU14-33_AU24-100_AU27i-33	1	1	3	12	19	test_extra	id-1280_AU10Open-100_AU14-33_AU24-100_AU27i-33	valence	-0.100545535458526		0.5103625558840577
id-1280_AU10Open-100_AU14-33_AU24-100_AU27i-33	1	1	3	12	19	test_extra	id-1280_AU10Open-100_AU14-33_AU24-100_AU27i-33	arousal	-0.13858979211850886		0.5103625558840577
id-1377_AU14-33_AU5-100_AU6-66	1	1	3	12	20	test_extra	id-1377_AU14-33_AU5-100_AU6-66	valence	0.06521872570282768		0.5436116614109778
id-1377_AU14-33_AU5-100_AU6-66	1	1	3	12	20	test_extra	id-1377_AU14-33_AU5-100_AU6-66	arousal	0.14674213283136228		0.5436116614109778
id-1342_AU1-100_AU14-100_AU15-66_AU5-100_AU7-100	1	1	3	12	21	test	id-1342_AU1-100_AU14-100_AU15-66_AU5-100_AU7-100	valence	0.2364178806727504		0.5769208362253266
id-1342_AU1-100_AU14-100_AU15-66_AU5-100_AU7-100	1	1	3	12	21	test	id-1342_AU1-100_AU14-100_AU15-66_AU5-100_AU7-100	arousal	0.13587234521422434		0.5769208362253266
id-1373_AU12-66_AU15-66_AU16Open-33	1	1	3	12	22	test_extra	id-1373_AU12-66_AU15-66_AU16Open-33	valence	0.2527225620984573		0.5935868941487571
id-1373_AU12-66_AU15-66_AU16Open-33	1	1	3	12	22	test_extra	id-1373_AU12-66_AU15-66_AU16Open-33	arousal	-0.1657642611613537		0.5935868941487571
id-1354_AU16Open-66_AU27i-33_AU5-100	1	1	3	12	23	test_extra	id-1354_AU16Open-66_AU27i-33_AU5-100	valence	-0.13043745140565535		0.8187003239818296
id-1354_AU16Open-66_AU27i-33_AU5-100	1	1	3	12	23	test_extra	id-1354_AU16Open-66_AU27i-33_AU5-100	arousal	0.4782706551540697		0.8187003239818296
id-1260_AU1-100_AU16Open-100_AU2-33	1	1	3	12	24	test_extra	id-1260_AU1-100_AU16Open-100_AU2-33	valence	0.0027174469042844872		0.8520454196277569
id-1260_AU1-100_AU16Open-100_AU2-33	1	1	3	12	24	test_extra	id-1260_AU1-100_AU16Open-100_AU2-33	arousal	0.3288110754184229		0.8520454196277569
id-1280_AU20-100_AU27i-66_AU9-33	1	1	3	12	25	test_extra	id-1280_AU20-100_AU27i-66_AU9-33	valence	-0.2581574559070263		1.468784647377106
id-1280_AU20-100_AU27i-66_AU9-33	1	1	3	12	25	test_extra	id-1280_AU20-100_AU27i-66_AU9-33	arousal	0.29620171256700906		1.468784647377106
id-1311_AU13-33_AU17-66_AU26-33_AU6-100	1	1	3	12	26	test_extra	id-1311_AU13-33_AU17-66_AU26-33_AU6-100	valence	0.31522384089700045		0.4778548080030305
id-1311_AU13-33_AU17-66_AU26-33_AU6-100	1	1	3	12	26	test_extra	id-1311_AU13-33_AU17-66_AU26-33_AU6-100	arousal	-0.30163660637557804		0.4778548080030305
id-1380_AU10Open-33_AU13-33_AU16Open-100_AU22-33_AU43-66	1	1	3	12	27	test	id-1380_AU10Open-33_AU13-33_AU16Open-100_AU22-33_AU43-66	valence	-0.09511064164995704		1.118625976918338
id-1380_AU10Open-33_AU13-33_AU16Open-100_AU22-33_AU43-66	1	1	3	12	27	test	id-1380_AU10Open-33_AU13-33_AU16Open-100_AU22-33_AU43-66	arousal	0.26359234971559525		1.118625976918338
id-1294_AU11-100_AU2-100_AU24-33	1	1	3	12	28	train	id-1294_AU11-100_AU2-100_AU24-33	valence	-0.4728357613455008		2.7022661214341497
id-1294_AU11-100_AU2-100_AU24-33	1	1	3	12	28	train	id-1294_AU11-100_AU2-100_AU24-33	arousal	0.10869787617137948		2.7022661214341497
id-1342_AU22-33	1	1	3	12	29	train	id-1342_AU22-33	valence	-0.00815234071285346		0.8520580975673511
id-1342_AU22-33	1	1	3	12	29	train	id-1342_AU22-33	arousal	-0.5570766153783199		0.8520580975673511
id-1377_AU17-66_AU24-33_AU4-100	1	1	3	12	30	test	id-1377_AU17-66_AU24-33_AU4-100	valence	-0.28533192494987114		2.4271729310275987
id-1377_AU17-66_AU24-33_AU4-100	1	1	3	12	30	test	id-1377_AU17-66_AU24-33_AU4-100	arousal	0.100545535458526		2.4271729310275987
id-1315_AU2-100_AU24-100	1	1	3	12	31	train	id-1315_AU2-100_AU24-100	valence	-0.36685533207840576		2.9022778334365285
id-1315_AU2-100_AU24-100	1	1	3	12	31	train	id-1315_AU2-100_AU24-100	arousal	0.2364178806727504		2.9022778334365285
id-1310_AU10Open-100_AU2-66_AU9-100	1	1	3	12	32	test_extra	id-1310_AU10Open-100_AU2-66_AU9-100	valence	-0.9103447129353032		0.7686559662834043
id-1310_AU10Open-100_AU2-66_AU9-100	1	1	3	12	32	test_extra	id-1310_AU10Open-100_AU2-66_AU9-100	arousal	0.8994749253181652		0.7686559662834043
id-1291_AU14-33_AU7-33	1	1	3	12	33	test_extra	id-1291_AU14-33_AU7-33	valence	-0.06521872570282768		1.5187644079505844
id-1291_AU14-33_AU7-33	1	1	3	12	33	test_extra	id-1291_AU14-33_AU7-33	arousal	0.2500051151941728		1.5187644079505844
id-1289_AU10Open-33_AU2-66_AU24-66	1	1	3	12	34	test_extra	id-1289_AU10Open-33_AU2-66_AU24-66	valence	-0.6820791729754062		0.59366688591399
id-1289_AU10Open-33_AU2-66_AU24-66	1	1	3	12	34	test_extra	id-1289_AU10Open-33_AU2-66_AU24-66	arousal	0.29620171256700906		0.59366688591399
id-1297_AU14-66_AU25-100	1	1	3	12	35	train	id-1297_AU14-66_AU25-100	valence	0.3885949073126817		0.7937235744193458
id-1297_AU14-66_AU25-100	1	1	3	12	35	train	id-1297_AU14-66_AU25-100	arousal	0.2663097966198797		0.7937235744193458
id-1264_AU15-66_AU24-33_AU4-100	1	1	3	12	36	test_extra	id-1264_AU15-66_AU24-33_AU4-100	valence	-0.23913532757703485		0.5602248945833708
id-1264_AU15-66_AU24-33_AU4-100	1	1	3	12	36	test_extra	id-1264_AU15-66_AU24-33_AU4-100	arousal	-0.33424596922699185		0.5602248945833708
id-1339_AU22-33	1	1	4	13	1	train	id-1339_AU22-33	emotion	Geen van allen	0.0	1.820129610805452
id-1373_AU11-33_AU13-100_AU16Open-66_AU43-33	1	1	4	13	2	test	id-1373_AU11-33_AU13-100_AU16Open-66_AU43-33	emotion	Verdrietig	0.05598163709908103	4.086656739636965
id-1345_AU11-33_AU25-33_AU9-66	1	1	4	13	3	test_extra	id-1345_AU11-33_AU25-33_AU9-66	emotion	Boos	0.26629283489335354	0.7279643061665411
id-1307_AU17-66_AU25-33_AU4-100	1	1	4	13	4	test_extra	id-1307_AU17-66_AU25-33_AU4-100	emotion	Walging	0.12001825772474628	0.9196429892035668
id-1373_AU1-66_AU24-33_AU26-66_AU7-33	1	1	4	13	5	test_extra	id-1373_AU1-66_AU24-33_AU26-66_AU7-33	emotion	Verrassing	0.26489768786665074	0.7031469364228542
id-1315_AU11-33_AU2-66_AU26-33	1	1	4	13	6	test_extra	id-1315_AU11-33_AU2-66_AU26-33	emotion	Bang	0.2164087518781698	1.8449219265276038
id-1306_AU16Open-66_AU2-33_AU5-33_AU6-100	1	1	4	13	7	test_extra	id-1306_AU16Open-66_AU2-33_AU5-33_AU6-100	emotion	Blij	0.19539283956949807	1.3031147586007137
id-1378_AU15-100_AU16Open-66_AU26-66_AU7-100	1	1	4	13	8	test_extra	id-1378_AU15-100_AU16Open-66_AU26-66_AU7-100	emotion	Verrassing	0.3342192801478152	0.7695742113792221
id-1377_AU2-66_AU25-100_AU9-100	1	1	4	13	9	test_extra	id-1377_AU2-66_AU25-100_AU9-100	emotion	Walging	0.09393957693932864	0.6779917901294539
id-1378_AU1-66_AU20-66_AU7-33	1	1	4	13	10	test	id-1378_AU1-66_AU20-66_AU7-33	emotion	Verdrietig	0.2005611467597129	1.861587380743004
id-1285_AU1-66_AU12-100_AU14-66_AU16Open-33_AU24-66	1	1	4	13	11	test_extra	id-1285_AU1-66_AU12-100_AU14-66_AU16Open-33_AU24-66	emotion	Blij	0.18042564475403305	0.8197640635335119
id-1345_AU26-66_AU27i-100_AU9-100	1	1	4	13	12	train	id-1345_AU26-66_AU27i-100_AU9-100	emotion	Verrassing	0.2368536113754632	1.3364197074333788
id-1306_AU24-66_AU43-100_AU7-100	1	1	4	13	13	test	id-1306_AU24-66_AU43-100_AU7-100	emotion	Blij	0.1657824799359239	0.5028704969554383
id-1339_AU14-100_AU15-66_AU26-33	1	1	4	13	14	test_extra	id-1339_AU14-100_AU15-66_AU26-33	emotion	Blij	0.5042885593368402	0.5530374080735783
id-1290_AU10Open-33_AU2-66_AU9-33	1	1	4	13	15	test_extra	id-1290_AU10Open-33_AU2-66_AU9-33	emotion	Walging	0.4827222845875719	0.9031203127487968
id-1341_AU12-66_AU13-33_AU14-100_AU15-33_AU22-100	1	1	4	13	16	train	id-1341_AU12-66_AU13-33_AU14-100_AU15-33_AU22-100	emotion	Blij	0.5302707612146085	0.7697692101719441
id-1370_AU10Open-100_AU2-33_AU27i-66_AU5-66	1	1	4	13	17	test	id-1370_AU10Open-100_AU2-33_AU27i-66_AU5-66	emotion	Verrassing	0.3009687149333605	1.4115208064613398
id-1264_AU22-100_AU26-33	1	1	4	13	18	train	id-1264_AU22-100_AU26-33	emotion	Bang	0.2403382321704245	1.0946740275176126
id-1294_AU12-33_AU13-33_AU15-100_AU22-33	1	1	4	13	19	train	id-1294_AU12-33_AU13-33_AU15-100_AU22-33	emotion	Blij	0.12701498086008786	1.194807417563425
id-1347_AU20-100_AU5-100	1	1	4	13	20	test_extra	id-1347_AU20-100_AU5-100	emotion	Bang	0.41406236175359584	0.8697069977097271
id-1291_AU10Open-66_AU22-66_AU27i-66_AU9-100	1	1	4	13	21	train	id-1291_AU10Open-66_AU22-66_AU27i-66_AU9-100	emotion	Walging	0.5688624613889699	1.2862144606406218
id-1290_AU14-66_AU16Open-100_AU27i-33	1	1	4	13	22	test_extra	id-1290_AU14-66_AU16Open-100_AU27i-33	emotion	Verrassing	0.5844130501803608	0.9447836464205466
id-1307_AU17-66_AU2-100_AU7-66	1	1	4	13	23	test_extra	id-1307_AU17-66_AU2-100_AU7-66	emotion	Blij	0.09881150045264572	1.811529137678008
id-1323_AU25-33_AU26-66	1	1	4	13	24	test_extra	id-1323_AU25-33_AU26-66	emotion	Verrassing	0.2261759770030796	0.7280998393835034
id-1290_AU24-33_AU25-66_AU4-66	1	1	4	13	25	test_extra	id-1290_AU24-33_AU25-66_AU4-66	emotion	Walging	0.09776828567258897	2.1785005679412284
id-1367_AU10Open-33_AU14-33_AU17-66_AU43-66	1	1	4	13	26	test_extra	id-1367_AU10Open-33_AU14-33_AU17-66_AU43-66	emotion	Blij	0.18978329515468093	0.5363915744819678
id-1341_AU12-33_AU2-66_AU20-33_AU24-66_AU5-33	1	1	4	13	27	train	id-1341_AU12-33_AU2-66_AU20-33_AU24-66_AU5-33	emotion	Blij	0.3058119261276735	0.5113490203730179
id-1345_AU17-66_AU25-66_AU6-100	1	1	4	13	28	test	id-1345_AU17-66_AU25-66_AU6-100	emotion	Verdrietig	0.17649402805352418	0.8197891175586847
id-1370_AU1-33_AU15-33_AU2-100	1	1	4	13	29	test_extra	id-1370_AU1-33_AU15-33_AU2-100	emotion	Verrassing	0.13306182765589844	1.7114808709520732
id-1354_AU11-100_AU15-100_AU4-66_AU9-66	1	1	4	13	30	test_extra	id-1354_AU11-100_AU15-100_AU4-66_AU9-66	emotion	Walging	0.7755742773463151	0.7446901315197465
id-1356_AU6-33	1	1	4	13	31	test	id-1356_AU6-33	emotion	Boos	0.10281348467487833	1.144719592637557
id-1318_AU2-66_AU22-100_AU5-33_AU7-66	1	1	4	13	32	test_extra	id-1318_AU2-66_AU22-100_AU5-33_AU7-66	emotion	Boos	0.3052478486310481	0.519844145856041
id-1273_AU1-33_AU13-33_AU26-33	1	1	4	13	33	test	id-1273_AU1-33_AU13-33_AU26-33	emotion	Blij	0.2873918863229534	0.5363725575734861
id-1378_AU10Open-100_AU24-66_AU43-100	1	1	4	13	34	test_extra	id-1378_AU10Open-100_AU24-66_AU43-100	emotion	Geen van allen	0.0	0.6778173175225675
id-1318_AU15-33_AU2-33_AU7-33	1	1	4	13	35	test_extra	id-1318_AU15-33_AU2-33_AU7-33	emotion	Boos	0.3200628099136321	0.6862888982614095
id-1355_AU13-66_AU2-66_AU6-33	1	1	4	13	36	test_extra	id-1355_AU13-66_AU2-66_AU6-33	emotion	Walging	0.2195574952096293	2.295019893801509
id-1295_AU24-100_AU27i-33	1	1	4	14	1	test_extra	id-1295_AU24-100_AU27i-33	emotion	Verrassing	0.22504858905877848	3.928600255792844
id-1294_AU10Open-33_AU7-100	1	1	4	14	2	test_extra	id-1294_AU10Open-33_AU7-100	emotion	Walging	0.15360193336991732	1.3531690775380412
id-1376_AU16Open-66_AU17-66_AU6-33	1	1	4	14	3	test_extra	id-1376_AU16Open-66_AU17-66_AU6-33	emotion	Blij	0.19386274913632304	1.6782326709908375
id-1295_AU24-100_AU25-100	1	1	4	14	4	test_extra	id-1295_AU24-100_AU25-100	emotion	Geen van allen	0.0	0.8281644063172281
id-1356_AU12-33_AU43-33	1	1	4	14	5	test_extra	id-1356_AU12-33_AU43-33	emotion	Blij	0.2592950016234654	0.9112707189997308
id-1294_AU11-33_AU14-33_AU17-33_AU4-100	1	1	4	14	6	test_extra	id-1294_AU11-33_AU14-33_AU17-33_AU4-100	emotion	Blij	0.13903839376069782	0.8447024774213787
