	rep	session	run	block	trial	data_split	trial_type	rating_type	rating	rating_intensity	rating_RT
id-1279_AU11-33_AU12-100_AU15-33_AU26-66_AU43-100	1	1	1	1	1	test_extra	id-1279_AU11-33_AU12-100_AU15-33_AU26-66_AU43-100	emotion	Blij	0.4963090104479784	6.553619380638338
id-1376_AU1-100_AU13-33_AU14-33_AU27i-66	1	1	1	1	2	test	id-1376_AU1-100_AU13-33_AU14-33_AU27i-66	emotion	Verrassing	0.6832781765287921	7.237407148928468
id-1363_AU14-66	1	1	1	1	3	test_extra	id-1363_AU14-66	emotion	Blij	0.3063540826150539	5.161847627649877
id-1318_AU15-100_AU4-33_AU43-100_AU9-66	1	1	1	1	4	train	id-1318_AU15-100_AU4-33_AU43-100_AU9-66	emotion	Boos	0.5484363404490299	2.011538164325429
id-1339_AU20-100_AU43-33_AU9-100	1	1	1	1	5	train	id-1339_AU20-100_AU43-33_AU9-100	emotion	Walging	0.2989439368430691	4.861738234839322
id-1307_AU1-33_AU10Open-100_AU4-66_AU9-33	1	1	1	1	6	test_extra	id-1307_AU1-33_AU10Open-100_AU4-66_AU9-33	emotion	Walging	0.7191340736025039	4.961740891177215
id-1356_AU11-100_AU12-33_AU25-66	1	1	1	1	7	train	id-1356_AU11-100_AU12-33_AU25-66	emotion	Blij	0.5518297264568655	4.970102015436169
id-1370_AU1-33_AU26-66_AU7-100	1	1	1	1	8	test_extra	id-1370_AU1-33_AU26-66_AU7-100	emotion	Verrassing	0.6008735269220327	3.26167249048558
id-1318_AU24-33	1	1	1	1	9	test_extra	id-1318_AU24-33	emotion	Verdrietig	0.3455001891516374	0.9198163384071448
id-1273_AU13-33_AU4-100_AU9-100	1	1	1	1	10	train	id-1273_AU13-33_AU4-100_AU9-100	emotion	Walging	0.3025136990659732	1.961372324343756
id-1297_AU20-33_AU22-33_AU26-66	1	1	1	1	11	train	id-1297_AU20-33_AU22-33_AU26-66	emotion	Bang	0.4586973543815938	1.9446253235901167
id-1363_AU16Open-66_AU26-66_AU43-66	1	1	1	1	12	train	id-1363_AU16Open-66_AU26-66_AU43-66	emotion	Bang	0.1524228818770055	5.853648781465381
id-1347_AU22-100_AU6-100	1	1	1	1	13	test_extra	id-1347_AU22-100_AU6-100	emotion	Walging	0.1122164476221872	8.637185042887722
id-1354_AU1-66_AU10Open-100	1	1	1	1	14	test	id-1354_AU1-66_AU10Open-100	emotion	Walging	0.2721269196766853	5.086784962231832
id-1347_AU1-66_AU26-33	1	1	1	1	15	test_extra	id-1347_AU1-66_AU26-33	emotion	Verrassing	0.5733514449019667	3.2200606610895197
id-1344_AU1-66_AU12-66_AU24-33_AU27i-33	1	1	1	1	16	train	id-1344_AU1-66_AU12-66_AU24-33_AU27i-33	emotion	Verrassing	0.5957097138778034	4.786954786720344
id-1266_AU17-100_AU20-66	1	1	1	1	17	test_extra	id-1266_AU17-100_AU20-66	emotion	Verdrietig	0.5862041383240757	2.09469420725236
id-1342_AU1-100_AU14-100_AU15-66_AU5-100_AU7-100	1	1	1	1	18	test	id-1342_AU1-100_AU14-100_AU15-66_AU5-100_AU7-100	emotion	Boos	0.34399668858064897	1.4864605268239757
id-1370_AU26-100_AU4-33_AU6-33	1	1	1	1	19	test_extra	id-1370_AU26-100_AU4-33_AU6-33	emotion	Walging	0.19626625888133328	2.828147639240342
id-1302_AU12-66_AU43-33	1	1	1	1	20	train	id-1302_AU12-66_AU43-33	emotion	Blij	0.3684005532775147	1.203129225991688
id-1370_AU13-33_AU25-33	1	1	1	1	21	test_extra	id-1370_AU13-33_AU25-33	emotion	Blij	0.19096564703496144	0.977911647799374
id-1370_AU12-33_AU24-33_AU26-33	1	1	1	1	22	train	id-1370_AU12-33_AU24-33_AU26-33	emotion	Blij	0.3144131170312632	1.3530444646758042
id-1309_AU15-66_AU43-100	1	1	1	1	23	train	id-1309_AU15-66_AU43-100	emotion	Verdrietig	0.4643056103103331	2.3197723277244218
id-1269_AU10Open-66_AU20-66_AU26-66_AU43-66	1	1	1	1	24	test	id-1269_AU10Open-66_AU20-66_AU26-66_AU43-66	emotion	Walging	0.3428143678234346	2.111355178892154
id-1380_AU12-33_AU13-33_AU22-33_AU9-33	1	1	1	1	25	test_extra	id-1380_AU12-33_AU13-33_AU22-33_AU9-33	emotion	Blij	0.3168202242786625	6.053513730850682
id-1378_AU15-100_AU16Open-66_AU26-66_AU7-100	1	1	1	1	26	train	id-1378_AU15-100_AU16Open-66_AU26-66_AU7-100	emotion	Bang	0.22329985150602186	2.43643384270581
id-1376_AU11-100_AU17-33_AU24-66_AU43-66	1	1	1	1	27	test_extra	id-1376_AU11-100_AU17-33_AU24-66_AU43-66	emotion	Verdrietig	0.358120418041475	1.9447053155736285
id-1339_AU10Open-100_AU12-33_AU20-100_AU27i-33	1	1	1	1	28	test	id-1339_AU10Open-100_AU12-33_AU20-100_AU27i-33	emotion	Blij	0.6050070507359075	1.7447576574959385
id-1273_AU10Open-66_AU12-66_AU25-66	1	1	1	1	29	train	id-1273_AU10Open-66_AU12-66_AU25-66	emotion	Blij	0.2468064211899633	5.003510893398925
id-1380_AU12-66_AU4-33	1	1	1	1	30	test_extra	id-1380_AU12-66_AU4-33	emotion	Walging	0.3834241382337944	3.3865357494732966
id-1362_AU17-33_AU5-33	1	1	1	1	31	train	id-1362_AU17-33_AU5-33	emotion	Verdrietig	0.2729164775748778	1.8824606862044675
id-1335_AU43-66_AU5-66	1	1	1	1	32	test	id-1335_AU43-66_AU5-66	emotion	Geen van allen	0.0	1.0780214632077332
id-1323_AU12-66_AU16Open-33_AU7-66_AU9-100	1	1	1	1	33	test	id-1323_AU12-66_AU16Open-33_AU7-66_AU9-100	emotion	Boos	0.20577917932092768	1.5863696076348788
id-1297_AU14-66_AU16Open-33_AU25-100_AU26-100	1	1	1	1	34	test_extra	id-1297_AU14-66_AU16Open-33_AU25-100_AU26-100	emotion	Bang	0.4118340326770916	1.4780335978402943
id-1354_AU16Open-66_AU27i-33_AU5-100	1	1	1	1	35	test_extra	id-1354_AU16Open-66_AU27i-33_AU5-100	emotion	Bang	0.5267428931462256	2.7031751081858597
id-1280_AU1-33_AU15-33_AU20-33_AU25-66	1	1	1	1	36	test_extra	id-1280_AU1-33_AU15-33_AU20-33_AU25-66	emotion	Bang	0.2303245388774632	5.436973562196727
id-1297_AU20-33_AU22-33_AU26-66	1	1	1	2	1	train	id-1297_AU20-33_AU22-33_AU26-66	valence	-0.5516417215697509		4.877497259142729
id-1297_AU20-33_AU22-33_AU26-66	1	1	1	2	1	train	id-1297_AU20-33_AU22-33_AU26-66	arousal	0.5543591684740353		4.877497259142729
id-1363_AU14-66	1	1	1	2	2	test_extra	id-1363_AU14-66	valence	0.3179412878012849		7.919634620771832
id-1363_AU14-66	1	1	1	2	2	test_extra	id-1363_AU14-66	arousal	-0.0407617035642673		7.919634620771832
id-1363_AU16Open-66_AU26-66_AU43-66	1	1	1	2	3	train	id-1363_AU16Open-66_AU26-66_AU43-66	valence	-0.04347915046855179		9.77802979444732
id-1363_AU16Open-66_AU26-66_AU43-66	1	1	1	2	3	train	id-1363_AU16Open-66_AU26-66_AU43-66	arousal	-0.4864229958669232		9.77802979444732
id-1380_AU12-66_AU4-33	1	1	1	2	4	test_extra	id-1380_AU12-66_AU4-33	valence	-0.2798970311413021		3.577160266502688
id-1380_AU12-66_AU4-33	1	1	1	2	4	test_extra	id-1380_AU12-66_AU4-33	arousal	0.3179412878012849		3.577160266502688
id-1370_AU1-33_AU26-66_AU7-100	1	1	1	2	5	test_extra	id-1370_AU1-33_AU26-66_AU7-100	valence	-0.13587234521422434		4.977477578096114
id-1370_AU1-33_AU26-66_AU7-100	1	1	1	2	5	test_extra	id-1370_AU1-33_AU26-66_AU7-100	arousal	0.5000102303883456		4.977477578096114
id-1378_AU15-100_AU16Open-66_AU26-66_AU7-100	1	1	1	2	6	train	id-1378_AU15-100_AU16Open-66_AU26-66_AU7-100	valence	-0.3750076727912592		6.96105114898637
id-1378_AU15-100_AU16Open-66_AU26-66_AU7-100	1	1	1	2	6	train	id-1378_AU15-100_AU16Open-66_AU26-66_AU7-100	arousal	0.5054451241969146		6.96105114898637
id-1380_AU12-33_AU13-33_AU22-33_AU9-33	1	1	1	2	7	test_extra	id-1380_AU12-33_AU13-33_AU22-33_AU9-33	valence	0.50272767729263		3.902292962637148
id-1380_AU12-33_AU13-33_AU22-33_AU9-33	1	1	1	2	7	test_extra	id-1380_AU12-33_AU13-33_AU22-33_AU9-33	arousal	0.2608749028113107		3.902292962637148
id-1344_AU1-66_AU12-66_AU24-33_AU27i-33	1	1	1	2	8	train	id-1344_AU1-66_AU12-66_AU24-33_AU27i-33	valence	-0.06793617260711217		6.385936262387986
id-1344_AU1-66_AU12-66_AU24-33_AU27i-33	1	1	1	2	8	train	id-1344_AU1-66_AU12-66_AU24-33_AU27i-33	arousal	-0.2744621373327332		6.385936262387986
id-1273_AU10Open-66_AU12-66_AU25-66	1	1	1	2	9	train	id-1273_AU10Open-66_AU12-66_AU25-66	valence	0.4701183144412162		7.002705238297494
id-1273_AU10Open-66_AU12-66_AU25-66	1	1	1	2	9	train	id-1273_AU10Open-66_AU12-66_AU25-66	arousal	-0.201091070917052		7.002705238297494
id-1370_AU26-100_AU4-33_AU6-33	1	1	1	2	10	test_extra	id-1370_AU26-100_AU4-33_AU6-33	valence	-0.15489447354421576		4.969020463458038
id-1370_AU26-100_AU4-33_AU6-33	1	1	1	2	10	test_extra	id-1370_AU26-100_AU4-33_AU6-33	arousal	0.15761192044850025		4.969020463458038
id-1297_AU14-66_AU16Open-33_AU25-100_AU26-100	1	1	1	2	11	test_extra	id-1297_AU14-66_AU16Open-33_AU25-100_AU26-100	valence	-0.5163149118140525		7.219563805228063
id-1297_AU14-66_AU16Open-33_AU25-100_AU26-100	1	1	1	2	11	test_extra	id-1297_AU14-66_AU16Open-33_AU25-100_AU26-100	arousal	0.3097889470884315		7.219563805228063
id-1273_AU13-33_AU4-100_AU9-100	1	1	1	2	12	train	id-1273_AU13-33_AU4-100_AU9-100	valence	-0.1875038363956296		4.002381044375397
id-1273_AU13-33_AU4-100_AU9-100	1	1	1	2	12	train	id-1273_AU13-33_AU4-100_AU9-100	arousal	0.14674213283136228		4.002381044375397
id-1370_AU13-33_AU25-33	1	1	1	2	13	test_extra	id-1370_AU13-33_AU25-33	valence	0.1657642611613537		4.652465322721582
id-1370_AU13-33_AU25-33	1	1	1	2	13	test_extra	id-1370_AU13-33_AU25-33	arousal	-0.09782808855424154		4.652465322721582
id-1309_AU15-66_AU43-100	1	1	1	2	14	train	id-1309_AU15-66_AU43-100	valence	-0.21739575234275896		2.4773504964941817
id-1309_AU15-66_AU43-100	1	1	1	2	14	train	id-1309_AU15-66_AU43-100	arousal	-0.1032629823628105		2.4773504964941817
id-1280_AU1-33_AU15-33_AU20-33_AU25-66	1	1	1	2	15	test_extra	id-1280_AU1-33_AU15-33_AU20-33_AU25-66	valence	-0.2418527744813193		4.535920626220103
id-1280_AU1-33_AU15-33_AU20-33_AU25-66	1	1	1	2	15	test_extra	id-1280_AU1-33_AU15-33_AU20-33_AU25-66	arousal	0.24457022138560386		4.535920626220103
id-1269_AU10Open-66_AU20-66_AU26-66_AU43-66	1	1	1	2	16	test	id-1269_AU10Open-66_AU20-66_AU26-66_AU43-66	valence	-0.3451157568441299		6.2861334350791385
id-1269_AU10Open-66_AU20-66_AU26-66_AU43-66	1	1	1	2	16	test	id-1269_AU10Open-66_AU20-66_AU26-66_AU43-66	arousal	0.1032629823628105		6.2861334350791385
id-1339_AU10Open-100_AU12-33_AU20-100_AU27i-33	1	1	1	2	17	test	id-1339_AU10Open-100_AU12-33_AU20-100_AU27i-33	valence	0.4891404427712077		2.435527065664246
id-1339_AU10Open-100_AU12-33_AU20-100_AU27i-33	1	1	1	2	17	test	id-1339_AU10Open-100_AU12-33_AU20-100_AU27i-33	arousal	0.19565617710848307		2.435527065664246
id-1347_AU22-100_AU6-100	1	1	1	2	18	test_extra	id-1347_AU22-100_AU6-100	valence	-0.23098298686418134		8.861366649440242
id-1347_AU22-100_AU6-100	1	1	1	2	18	test_extra	id-1347_AU22-100_AU6-100	arousal	0.2282655399598969		8.861366649440242
id-1356_AU11-100_AU12-33_AU25-66	1	1	1	2	19	train	id-1356_AU11-100_AU12-33_AU25-66	valence	0.29891915947129355		5.3942786715415405
id-1356_AU11-100_AU12-33_AU25-66	1	1	1	2	19	train	id-1356_AU11-100_AU12-33_AU25-66	arousal	0.40761703564267293		5.3942786715415405
id-1376_AU1-100_AU13-33_AU14-33_AU27i-66	1	1	1	2	20	test	id-1376_AU1-100_AU13-33_AU14-33_AU27i-66	valence	-0.3206587347055695		3.927434895581429
id-1376_AU1-100_AU13-33_AU14-33_AU27i-66	1	1	1	2	20	test	id-1376_AU1-100_AU13-33_AU14-33_AU27i-66	arousal	0.42392171706838		3.927434895581429
id-1354_AU16Open-66_AU27i-33_AU5-100	1	1	1	2	21	test_extra	id-1354_AU16Open-66_AU27i-33_AU5-100	valence	-0.3179412878012849		3.860842324633268
id-1354_AU16Open-66_AU27i-33_AU5-100	1	1	1	2	21	test_extra	id-1354_AU16Open-66_AU27i-33_AU5-100	arousal	0.4782706551540697		3.860842324633268
id-1342_AU1-100_AU14-100_AU15-66_AU5-100_AU7-100	1	1	1	2	22	test	id-1342_AU1-100_AU14-100_AU15-66_AU5-100_AU7-100	valence	-0.1657642611613537		4.960960290168258
id-1342_AU1-100_AU14-100_AU15-66_AU5-100_AU7-100	1	1	1	2	22	test	id-1342_AU1-100_AU14-100_AU15-66_AU5-100_AU7-100	arousal	0.5842510844211647		4.960960290168258
id-1335_AU43-66_AU5-66	1	1	1	2	23	test	id-1335_AU43-66_AU5-66	valence	0.11956766378851742		7.361091959990518
id-1335_AU43-66_AU5-66	1	1	1	2	23	test	id-1335_AU43-66_AU5-66	arousal	-0.4565310799197938		7.361091959990518
id-1376_AU11-100_AU17-33_AU24-66_AU43-66	1	1	1	2	24	test_extra	id-1376_AU11-100_AU17-33_AU24-66_AU43-66	valence	-0.08967574784138807		5.9108955721267185
id-1376_AU11-100_AU17-33_AU24-66_AU43-66	1	1	1	2	24	test_extra	id-1376_AU11-100_AU17-33_AU24-66_AU43-66	arousal	-0.4972927834840611		5.9108955721267185
id-1354_AU1-66_AU10Open-100	1	1	1	2	25	test	id-1354_AU1-66_AU10Open-100	valence	-0.11413276997994845		8.169451393852796
id-1354_AU1-66_AU10Open-100	1	1	1	2	25	test	id-1354_AU1-66_AU10Open-100	arousal	-0.2092434116299055		8.169451393852796
id-1318_AU15-100_AU4-33_AU43-100_AU9-66	1	1	1	2	26	train	id-1318_AU15-100_AU4-33_AU43-100_AU9-66	valence	-0.1711991549699227		2.052146320731481
id-1318_AU15-100_AU4-33_AU43-100_AU9-66	1	1	1	2	26	train	id-1318_AU15-100_AU4-33_AU43-100_AU9-66	arousal	0.4266391639726645		2.052146320731481
id-1302_AU12-66_AU43-33	1	1	1	2	27	train	id-1302_AU12-66_AU43-33	valence	0.4347915046855179		2.1603938865600867
id-1302_AU12-66_AU43-33	1	1	1	2	27	train	id-1302_AU12-66_AU43-33	arousal	-0.1521770266399313		2.1603938865600867
id-1266_AU17-100_AU20-66	1	1	1	2	28	test_extra	id-1266_AU17-100_AU20-66	valence	-0.4891404427712077		2.2354813042138635
id-1266_AU17-100_AU20-66	1	1	1	2	28	test_extra	id-1266_AU17-100_AU20-66	arousal	0.17663404877849165		2.2354813042138635
id-1318_AU24-33	1	1	1	2	29	test_extra	id-1318_AU24-33	valence	-0.1630468142570692		3.8106798050730495
id-1318_AU24-33	1	1	1	2	29	test_extra	id-1318_AU24-33	arousal	-0.2282655399598969		3.8106798050730495
id-1339_AU20-100_AU43-33_AU9-100	1	1	1	2	30	train	id-1339_AU20-100_AU43-33_AU9-100	valence	-0.1630468142570692		2.393845809265258
id-1339_AU20-100_AU43-33_AU9-100	1	1	1	2	30	train	id-1339_AU20-100_AU43-33_AU9-100	arousal	0.2364178806727504		2.393845809265258
id-1323_AU12-66_AU16Open-33_AU7-66_AU9-100	1	1	1	2	31	test	id-1323_AU12-66_AU16Open-33_AU7-66_AU9-100	valence	0.33424596922699185		2.8939704760159657
id-1323_AU12-66_AU16Open-33_AU7-66_AU9-100	1	1	1	2	31	test	id-1323_AU12-66_AU16Open-33_AU7-66_AU9-100	arousal	0.29620171256700906		2.8939704760159657
id-1307_AU1-33_AU10Open-100_AU4-66_AU9-33	1	1	1	2	32	test_extra	id-1307_AU1-33_AU10Open-100_AU4-66_AU9-33	valence	-0.5543591684740353		3.436742038232296
id-1307_AU1-33_AU10Open-100_AU4-66_AU9-33	1	1	1	2	32	test_extra	id-1307_AU1-33_AU10Open-100_AU4-66_AU9-33	arousal	0.23370043376846586		3.436742038232296
id-1279_AU11-33_AU12-100_AU15-33_AU26-66_AU43-100	1	1	1	2	33	test_extra	id-1279_AU11-33_AU12-100_AU15-33_AU26-66_AU43-100	valence	0.6521872570282768		4.319114582327528
id-1279_AU11-33_AU12-100_AU15-33_AU26-66_AU43-100	1	1	1	2	33	test_extra	id-1279_AU11-33_AU12-100_AU15-33_AU26-66_AU43-100	arousal	0.19022128329991408		4.319114582327528
id-1362_AU17-33_AU5-33	1	1	1	2	34	train	id-1362_AU17-33_AU5-33	valence	-0.10869787617137948		3.4272767227557783
id-1362_AU17-33_AU5-33	1	1	1	2	34	train	id-1362_AU17-33_AU5-33	arousal	-0.3967472480255351		3.4272767227557783
id-1370_AU12-33_AU24-33_AU26-33	1	1	1	2	35	train	id-1370_AU12-33_AU24-33_AU26-33	valence	0.50272767729263		4.685796925410614
id-1370_AU12-33_AU24-33_AU26-33	1	1	1	2	35	train	id-1370_AU12-33_AU24-33_AU26-33	arousal	-0.17663404877849165		4.685796925410614
id-1347_AU1-66_AU26-33	1	1	1	2	36	test_extra	id-1347_AU1-66_AU26-33	valence	-0.11413276997994845		4.427365468577591
id-1347_AU1-66_AU26-33	1	1	1	2	36	test_extra	id-1347_AU1-66_AU26-33	arousal	0.6521872570282768		4.427365468577591
id-1310_AU10Open-33_AU16Open-33_AU20-66_AU26-100	1	1	1	3	1	test_extra	id-1310_AU10Open-33_AU16Open-33_AU20-66_AU26-100	emotion	Boos	0.5322869084146111	2.5781760137542733
id-1355_AU11-100_AU15-100_AU2-66_AU25-33	1	1	1	3	2	test_extra	id-1355_AU11-100_AU15-100_AU2-66_AU25-33	emotion	Walging	0.2161200246040144	1.1028884048446344
id-1260_AU12-100_AU4-66_AU43-66	1	1	1	3	3	test_extra	id-1260_AU12-100_AU4-66_AU43-66	emotion	Verdrietig	0.4757351376226238	4.970324785561387
id-1378_AU14-66_AU16Open-66	1	1	1	3	4	test_extra	id-1378_AU14-66_AU16Open-66	emotion	Blij	0.3616518068217292	1.0028631092673097
id-1376_AU16Open-100_AU43-66_AU5-33	1	1	1	3	5	train	id-1376_AU16Open-100_AU43-66_AU5-33	emotion	Verdrietig	0.17680143451760474	1.403009268203277
id-1377_AU17-66_AU2-33_AU20-66_AU5-66	1	1	1	3	6	test_extra	id-1377_AU17-66_AU2-33_AU20-66_AU5-66	emotion	Bang	0.06354998998447302	5.912010328323048
id-1323_AU26-33	1	1	1	3	7	train	id-1323_AU26-33	emotion	Verrassing	0.394208420422223	2.5197990722135732
id-1266_AU13-66_AU17-100_AU2-100_AU9-33	1	1	1	3	8	test	id-1266_AU13-66_AU17-100_AU2-100_AU9-33	emotion	Walging	0.20196802419573964	8.462263706701378
id-1280_AU1-66_AU17-100_AU26-33	1	1	1	3	9	train	id-1280_AU1-66_AU17-100_AU26-33	emotion	Verrassing	0.7287887858853285	1.0280753747847484
id-1309_AU27i-33_AU4-100_AU43-66	1	1	1	3	10	test_extra	id-1309_AU27i-33_AU4-100_AU43-66	emotion	Bang	0.4378660287805592	8.52920190338682
id-1289_AU10Open-33_AU2-66_AU24-66	1	1	1	3	11	test_extra	id-1289_AU10Open-33_AU2-66_AU24-66	emotion	Boos	0.4846772906428026	1.6782610769269013
id-1373_AU1-33_AU15-100_AU4-66_AU7-66_AU9-66	1	1	1	3	12	test_extra	id-1373_AU1-33_AU15-100_AU4-66_AU7-66_AU9-66	emotion	Verdrietig	0.4887615222869737	1.2196863589824716
id-1315_AU27i-66	1	1	1	3	13	test_extra	id-1315_AU27i-66	emotion	Verrassing	0.8054749333474076	1.1447999777828954
id-1285_AU16Open-33_AU5-33	1	1	1	3	14	test	id-1285_AU16Open-33_AU5-33	emotion	Bang	0.2417065268991969	1.6946887134636202
id-1315_AU15-100_AU2-33_AU25-33_AU26-66	1	1	1	3	15	train	id-1315_AU15-100_AU2-33_AU25-33_AU26-66	emotion	Verrassing	0.7346568728408077	1.3196878078942973
id-1279_AU22-33_AU26-33_AU4-33	1	1	1	3	16	test	id-1279_AU22-33_AU26-33_AU4-33	emotion	Bang	0.2615190524145241	3.2450746068616354
id-1289_AU10Open-66_AU15-66_AU43-100_AU7-100	1	1	1	3	17	test_extra	id-1289_AU10Open-66_AU15-66_AU43-100_AU7-100	emotion	Walging	0.7787265196948052	1.619856062728104
id-1376_AU14-100_AU16Open-33_AU6-66_AU9-100	1	1	1	3	18	train	id-1376_AU14-100_AU16Open-33_AU6-66_AU9-100	emotion	Blij	0.16259264417198208	12.887850032842836
id-1377_AU13-66_AU5-100	1	1	1	3	19	test_extra	id-1377_AU13-66_AU5-100	emotion	Verdrietig	0.21621191599026893	2.470152727334608
id-1370_AU10Open-100_AU2-33_AU27i-66_AU5-66	1	1	1	3	20	test	id-1370_AU10Open-100_AU2-33_AU27i-66_AU5-66	emotion	Verrassing	0.3102899945739549	5.545312892412766
id-1335_AU1-33_AU14-66_AU27i-66_AU7-100	1	1	1	3	21	train	id-1335_AU1-33_AU14-66_AU27i-66_AU7-100	emotion	Bang	0.5585757964943189	1.7532648803198754
id-1291_AU15-66_AU20-66_AU7-100	1	1	1	3	22	test_extra	id-1291_AU15-66_AU20-66_AU7-100	emotion	Verdrietig	0.6690150238831493	1.2447332071169512
id-1310_AU13-66	1	1	1	3	23	test_extra	id-1310_AU13-66	emotion	Verdrietig	0.3636930287073912	1.2698377098504352
id-1294_AU13-33	1	1	1	3	24	test_extra	id-1294_AU13-33	emotion	Blij	0.21261165510203184	1.85311087311402
id-1360_AU11-100_AU16Open-66_AU22-100_AU25-66_AU26-33	1	1	1	3	25	train	id-1360_AU11-100_AU16Open-66_AU22-100_AU25-66_AU26-33	emotion	Verrassing	0.4708900125261598	3.1865165513981992
id-1373_AU11-33_AU13-100_AU16Open-66_AU43-33	1	1	1	3	26	test	id-1373_AU11-33_AU13-100_AU16Open-66_AU43-33	emotion	Walging	0.27102603501590306	3.5451088373929447
id-1295_AU1-100_AU16Open-100_AU24-33_AU4-100	1	1	1	3	27	train	id-1295_AU1-100_AU16Open-100_AU24-33_AU4-100	emotion	Bang	0.4415954453723963	1.3613071837035022
id-1376_AU13-66_AU16Open-100	1	1	1	3	28	train	id-1376_AU13-66_AU16Open-100	emotion	Blij	0.024529643798598386	18.363575333732115
id-1293_AU22-100_AU24-33	1	1	1	3	29	test_extra	id-1293_AU22-100_AU24-33	emotion	Verdrietig	0.4446941343250448	1.4113863908587518
id-1264_AU10Open-33_AU25-66_AU4-66	1	1	1	3	30	test	id-1264_AU10Open-33_AU25-66_AU4-66	emotion	Walging	0.4307244100715419	2.5449228937659427
id-1335_AU1-33_AU14-66_AU2-33	1	1	1	3	31	train	id-1335_AU1-33_AU14-66_AU2-33	emotion	Blij	0.4361510861891067	1.8364357142163497
id-1309_AU12-100_AU16Open-33_AU26-100_AU27i-66_AU7-33	1	1	1	3	32	test_extra	id-1309_AU12-100_AU16Open-33_AU26-100_AU27i-66_AU7-33	emotion	Verrassing	0.5596144791239915	5.4701998169539365
id-1315_AU2-100_AU24-100	1	1	1	3	33	test_extra	id-1315_AU2-100_AU24-100	emotion	Boos	0.3823541974139968	2.3033893659567184
id-1366_AU15-66_AU22-66_AU24-33_AU5-100	1	1	1	3	34	test_extra	id-1366_AU15-66_AU22-66_AU24-33_AU5-100	emotion	Verdrietig	0.3512765430031087	2.3114308241401886
id-1296_AU1-66_AU17-100_AU27i-33_AU4-66_AU5-100	1	1	1	3	35	test	id-1296_AU1-66_AU17-100_AU27i-33_AU4-66_AU5-100	emotion	Bang	0.4784829924231238	1.80319346106262
id-1318_AU1-33_AU16Open-33_AU20-100_AU43-66	1	1	1	3	36	test_extra	id-1318_AU1-33_AU16Open-33_AU20-100_AU43-66	emotion	Walging	0.11668572647788775	10.804147025867676
id-1270_AU16Open-66_AU20-66_AU6-66	1	1	1	4	1	test_extra	id-1270_AU16Open-66_AU20-66_AU6-66	emotion	Walging	0.333908149015608	1.5614700654914486
id-1344_AU13-66_AU14-66_AU24-33_AU9-33	1	1	1	4	2	test	id-1344_AU13-66_AU14-66_AU24-33_AU9-33	emotion	Boos	0.4719296619004971	1.7696381826781362
id-1358_AU15-33_AU22-100	1	1	1	4	3	test_extra	id-1358_AU15-33_AU22-100	emotion	Verdrietig	0.4899106579754708	4.296076589455879
id-1335_AU11-100_AU16Open-100_AU5-33	1	1	1	4	4	train	id-1335_AU11-100_AU16Open-100_AU5-33	emotion	Walging	0.2711752751844794	2.1863704528332164
id-1295_AU10Open-66_AU20-66_AU27i-66	1	1	1	4	5	test_extra	id-1295_AU10Open-66_AU20-66_AU27i-66	emotion	Bang	0.420397086395106	4.253321025636069
id-1318_AU15-33_AU2-33_AU7-33	1	1	1	4	6	test_extra	id-1318_AU15-33_AU2-33_AU7-33	emotion	Walging	0.2246635099057712	1.4781347197804282
id-1295_AU11-33_AU12-100_AU13-100_AU20-33_AU9-66	1	1	1	4	7	test	id-1295_AU11-33_AU12-100_AU13-100_AU20-33_AU9-66	emotion	Boos	0.6217260387433234	2.1282045090119937
id-1363_AU2-100_AU25-100_AU26-100_AU27i-66	1	1	1	4	8	test_extra	id-1363_AU2-100_AU25-100_AU26-100_AU27i-66	emotion	Bang	0.567816330013259	2.6114233984699236
id-1269_AU17-33_AU24-33_AU6-66	1	1	1	4	9	test_extra	id-1269_AU17-33_AU24-33_AU6-66	emotion	Boos	0.20953837042155016	1.553056418194501
id-1347_AU4-33_AU43-66_AU9-66	1	1	1	4	10	test_extra	id-1347_AU4-33_AU43-66_AU9-66	emotion	Walging	0.15813613588620276	1.4197152164670117
id-1297_AU2-66_AU22-66	1	1	1	4	11	train	id-1297_AU2-66_AU22-66	emotion	Verrassing	0.2797571046372113	0.9363662268415284
id-1355_AU26-33_AU7-100	1	1	1	4	12	test_extra	id-1355_AU26-33_AU7-100	emotion	Verrassing	0.541025819813675	1.544745100264663
id-1273_AU17-33_AU20-33_AU7-33_AU9-66	1	1	1	4	13	test_extra	id-1273_AU17-33_AU20-33_AU7-33_AU9-66	emotion	Walging	0.4036095637898582	1.8697274718424524
id-1380_AU13-100_AU14-66_AU2-100	1	1	1	4	14	test_extra	id-1380_AU13-100_AU14-66_AU2-100	emotion	Blij	0.6955124511029894	1.1446261084174694
id-1293_AU14-33_AU15-33_AU43-66	1	1	1	4	15	train	id-1293_AU14-33_AU15-33_AU43-66	emotion	Verdrietig	0.3196806278224337	2.744927904584074
id-1294_AU13-100_AU2-66_AU6-33	1	1	1	4	16	test_extra	id-1294_AU13-100_AU2-66_AU6-33	emotion	Walging	0.13403274629322035	3.845051605393565
id-1273_AU22-100_AU26-33	1	1	1	4	17	train	id-1273_AU22-100_AU26-33	emotion	Bang	0.3652069934510845	13.446414125436606
id-1295_AU15-66_AU17-33_AU20-33_AU25-66	1	1	1	4	18	test_extra	id-1295_AU15-66_AU17-33_AU20-33_AU25-66	emotion	Verdrietig	0.4018973632418684	3.3366485230762923
id-1279_AU1-100_AU10Open-33_AU25-100_AU5-100	1	1	1	4	19	test_extra	id-1279_AU1-100_AU10Open-33_AU25-100_AU5-100	emotion	Walging	0.4402720560166302	2.7699856195540637
id-1273_AU11-33_AU14-33_AU26-100	1	1	1	4	20	test_extra	id-1273_AU11-33_AU14-33_AU26-100	emotion	Blij	0.6171871093083183	1.2447398479607727
id-1274_AU10Open-66_AU2-33_AU43-100_AU9-66	1	1	1	4	21	test	id-1274_AU10Open-66_AU2-33_AU43-100_AU9-66	emotion	Walging	0.5802462984718527	1.4115364135577693
id-1291_AU4-100_AU43-33_AU7-66	1	1	1	4	22	test	id-1291_AU4-100_AU43-33_AU7-66	emotion	Verdrietig	0.4990247866047326	1.4697651435380976
id-1279_AU1-100_AU13-66_AU22-100_AU27i-100	1	1	1	4	23	train	id-1279_AU1-100_AU13-66_AU22-100_AU27i-100	emotion	Bang	0.5339458621622382	4.728442915306005
id-1310_AU15-66_AU25-100_AU4-100_AU43-33	1	1	1	4	24	test_extra	id-1310_AU15-66_AU25-100_AU4-100_AU43-33	emotion	Verdrietig	0.3680811157417456	3.2697993740703173
id-1363_AU1-33_AU15-100_AU2-66_AU22-66_AU5-100	1	1	1	4	25	test	id-1363_AU1-33_AU15-100_AU2-66_AU22-66_AU5-100	emotion	Verrassing	0.26799578731699103	6.261940840948228
id-1290_AU10Open-33_AU2-66_AU9-33	1	1	1	4	26	test_extra	id-1290_AU10Open-33_AU2-66_AU9-33	emotion	Boos	0.4327903219784635	1.2362232675850464
id-1273_AU16Open-33_AU17-100_AU22-100	1	1	1	4	27	train	id-1273_AU16Open-33_AU17-100_AU22-100	emotion	Boos	0.2138815637503912	1.4363007239726358
id-1311_AU15-66_AU16Open-100_AU17-66_AU20-100	1	1	1	4	28	test_extra	id-1311_AU15-66_AU16Open-100_AU17-66_AU20-100	emotion	Bang	0.27714902498026395	3.686587487684847
id-1315_AU12-66_AU17-33_AU2-100_AU4-100	1	1	1	4	29	test	id-1315_AU12-66_AU17-33_AU2-100_AU4-100	emotion	Verdrietig	0.481963426223791	1.9448610735462355
id-1302_AU2-33_AU43-66	1	1	1	4	30	test_extra	id-1302_AU2-33_AU43-66	emotion	Walging	0.07163774411017047	1.6280716921355634
id-1270_AU12-33_AU15-33_AU17-100_AU24-66	1	1	1	4	31	train	id-1270_AU12-33_AU15-33_AU17-100_AU24-66	emotion	Blij	0.3205375371626374	1.069587893379321
id-1306_AU17-100_AU5-66	1	1	1	4	32	train	id-1306_AU17-100_AU5-66	emotion	Verrassing	0.3773887429221348	3.1698875765505363
id-1323_AU22-33_AU5-100_AU9-66	1	1	1	4	33	train	id-1323_AU22-33_AU5-100_AU9-66	emotion	Boos	0.4906374048215901	1.010994822556313
id-1291_AU1-100_AU14-100_AU24-66	1	1	1	4	34	train	id-1291_AU1-100_AU14-100_AU24-66	emotion	Blij	0.41420945952891225	3.278316558159532
id-1290_AU24-100_AU9-33	1	1	1	4	35	test_extra	id-1290_AU24-100_AU9-33	emotion	Boos	0.6018419662290434	1.811604995363268
id-1260_AU22-100_AU25-100_AU26-100	1	1	1	4	36	test	id-1260_AU22-100_AU25-100_AU26-100	emotion	Verrassing	0.6049549484643628	0.8947193820877146
id-1361_AU15-66_AU24-66_AU7-66	1	1	2	5	1	test_extra	id-1361_AU15-66_AU24-66_AU7-66	emotion	Verdrietig	0.21485756677608844	14.688154424975435
id-1302_AU15-66_AU24-100_AU25-100_AU43-33	1	1	2	5	2	test	id-1302_AU15-66_AU24-100_AU25-100_AU43-33	emotion	Verdrietig	0.3184804837586143	3.0866376562407822
id-1264_AU1-100_AU4-100	1	1	2	5	3	train	id-1264_AU1-100_AU4-100	emotion	Bang	0.2833562243442435	3.5200499149968887
id-1293_AU6-33_AU7-66	1	1	2	5	4	test_extra	id-1293_AU6-33_AU7-66	emotion	Walging	0.2446127852278853	4.111964325386907
id-1269_AU15-66_AU16Open-66_AU26-33_AU27i-100	1	1	2	5	5	test	id-1269_AU15-66_AU16Open-66_AU26-33_AU27i-100	emotion	Verrassing	0.6143095348470741	1.4699121476733126
id-1289_AU17-33_AU26-66	1	1	2	5	6	test	id-1289_AU17-33_AU26-66	emotion	Geen van allen	0.0	4.028467486428781
id-1291_AU13-66_AU7-33_AU9-66	1	1	2	5	7	test_extra	id-1291_AU13-66_AU7-33_AU9-66	emotion	Walging	0.4933841314216818	2.970007534338947
id-1323_AU14-66_AU24-100_AU25-66_AU5-100_AU6-66	1	1	2	5	8	test_extra	id-1323_AU14-66_AU24-100_AU25-66_AU5-100_AU6-66	emotion	Boos	0.33951896318440805	3.603423294631284
id-1291_AU10Open-33_AU11-100_AU15-100	1	1	2	5	9	test_extra	id-1291_AU10Open-33_AU11-100_AU15-100	emotion	Walging	0.4227465297845157	1.1614066152469604
id-1310_AU20-33_AU24-33	1	1	2	5	10	test_extra	id-1310_AU20-33_AU24-33	emotion	Verdrietig	0.4320856900838919	1.7032052938393465
id-1323_AU12-33_AU20-100_AU25-33_AU4-33	1	1	2	5	11	test_extra	id-1323_AU12-33_AU20-100_AU25-33_AU4-33	emotion	Bang	0.39666709701947656	1.5032814824298841
id-1361_AU16Open-33_AU24-66_AU25-100	1	1	2	5	12	train	id-1361_AU16Open-33_AU24-66_AU25-100	emotion	Bang	0.22381499904656146	12.887993716554774
id-1264_AU22-100_AU26-33	1	1	2	5	13	test_extra	id-1264_AU22-100_AU26-33	emotion	Verrassing	0.6446096998229036	1.1614247266388702
id-1323_AU26-100	1	1	2	5	14	train	id-1323_AU26-100	emotion	Verrassing	0.6696642558866049	2.2950357881118184
id-1339_AU11-100_AU20-100_AU4-33	1	1	2	5	15	test_extra	id-1339_AU11-100_AU20-100_AU4-33	emotion	Walging	0.5067707073999429	3.0283056913240216
id-1309_AU15-33	1	1	2	5	16	test	id-1309_AU15-33	emotion	Verdrietig	0.16525296947987	0.9864569045457756
id-1270_AU11-33_AU17-66	1	1	2	5	17	test_extra	id-1270_AU11-33_AU17-66	emotion	Verdrietig	0.3026529264964668	1.1615617695069886
id-1318_AU2-66_AU22-100_AU5-33_AU7-66	1	1	2	5	18	test_extra	id-1318_AU2-66_AU22-100_AU5-33_AU7-66	emotion	Boos	0.2394482246448752	1.0614993455747026
id-1377_AU24-100	1	1	2	5	19	test_extra	id-1377_AU24-100	emotion	Verdrietig	0.3838077122980648	1.8366458063674145
id-1380_AU17-33_AU27i-100_AU6-100	1	1	2	5	20	train	id-1380_AU17-33_AU27i-100_AU6-100	emotion	Bang	0.4841910200304369	1.3616096439536705
id-1289_AU4-66_AU43-66_AU6-33	1	1	2	5	21	test_extra	id-1289_AU4-66_AU43-66_AU6-33	emotion	Geen van allen	0.0	4.019878762339431
id-1285_AU26-100_AU4-66_AU7-100_AU9-33	1	1	2	5	22	test_extra	id-1285_AU26-100_AU4-66_AU7-100_AU9-33	emotion	Walging	0.4110429529318385	2.0700343391990828
id-1295_AU24-100_AU27i-33	1	1	2	5	23	test_extra	id-1295_AU24-100_AU27i-33	emotion	Verrassing	0.6531505296785441	1.5279307855034858
id-1294_AU10Open-66_AU27i-66_AU43-33_AU7-66	1	1	2	5	24	test_extra	id-1294_AU10Open-66_AU27i-66_AU43-33_AU7-66	emotion	Walging	0.2074486239550904	2.586619544847963
id-1367_AU14-66_AU2-100_AU20-66_AU9-33	1	1	2	5	25	test_extra	id-1367_AU14-66_AU2-100_AU20-66_AU9-33	emotion	Boos	0.6503381124829409	0.9365108161227907
id-1309_AU16Open-100_AU2-33_AU5-33_AU7-33	1	1	2	5	26	train	id-1309_AU16Open-100_AU2-33_AU5-33_AU7-33	emotion	Bang	0.2167365871273398	1.7949120269304333
id-1373_AU1-33_AU26-100_AU27i-66_AU7-66	1	1	2	5	27	train	id-1373_AU1-33_AU26-100_AU27i-66_AU7-66	emotion	Bang	0.5596144791239915	1.1615472803932791
id-1347_AU13-100_AU14-66_AU17-100_AU27i-66_AU7-100	1	1	2	5	28	test	id-1347_AU13-100_AU14-66_AU17-100_AU27i-66_AU7-100	emotion	Geen van allen	0.0	13.496359308289357
id-1306_AU24-66_AU43-100_AU7-100	1	1	2	5	29	test	id-1306_AU24-66_AU43-100_AU7-100	emotion	Verdrietig	0.3211663542756209	1.1697164238930782
id-1373_AU22-66_AU4-100	1	1	2	5	30	test_extra	id-1373_AU22-66_AU4-100	emotion	Verdrietig	0.2912932402145878	6.078728411221165
id-1295_AU24-100_AU25-100	1	1	2	5	31	test_extra	id-1295_AU24-100_AU25-100	emotion	Bang	0.1566473451489744	1.8948603490907767
id-1273_AU1-33_AU13-33_AU26-33	1	1	2	5	32	test	id-1273_AU1-33_AU13-33_AU26-33	emotion	Blij	0.30770146588632313	1.0529957450298753
id-1361_AU12-33_AU13-100_AU4-100	1	1	2	5	33	train	id-1361_AU12-33_AU13-100_AU4-100	emotion	Blij	0.2652468971115441	2.028186156134325
id-1310_AU16Open-100_AU27i-66_AU6-33_AU7-66	1	1	2	5	34	test_extra	id-1310_AU16Open-100_AU27i-66_AU6-33_AU7-66	emotion	Boos	0.4396009887615906	1.6614612512803433
id-1378_AU26-66_AU4-33_AU43-66	1	1	2	5	35	train	id-1378_AU26-66_AU4-33_AU43-66	emotion	Bang	0.2388538011152303	1.819974269747945
id-1302_AU14-100_AU17-33_AU26-66_AU9-33	1	1	2	5	36	test_extra	id-1302_AU14-100_AU17-33_AU26-66_AU9-33	emotion	Boos	0.6559472224357988	1.9614837094059112
id-1339_AU1-66_AU10Open-33_AU26-33	1	1	2	6	1	test_extra	id-1339_AU1-66_AU10Open-33_AU26-33	emotion	Verrassing	0.43168267072697614	2.211666634469111
id-1361_AU12-33_AU15-33_AU16Open-100_AU6-66	1	1	2	6	2	test	id-1361_AU12-33_AU15-33_AU16Open-100_AU6-66	emotion	Blij	0.42602010435100696	2.3450042139174907
id-1297_AU11-100_AU24-33	1	1	2	6	3	test	id-1297_AU11-100_AU24-33	emotion	Walging	0.2759243906915175	3.3700646455954484
id-1370_AU13-100_AU16Open-66_AU20-100	1	1	2	6	4	train	id-1370_AU13-100_AU16Open-66_AU20-100	emotion	Bang	0.27596980793713305	3.645074063520042
id-1345_AU11-100_AU20-66	1	1	2	6	5	test_extra	id-1345_AU11-100_AU20-66	emotion	Verdrietig	0.4941374796687836	1.3198532252763469
id-1341_AU12-66_AU20-66	1	1	2	6	6	train	id-1341_AU12-66_AU20-66	emotion	Blij	0.5676657833398532	1.4448468862901789
id-1296_AU15-66_AU24-66	1	1	2	6	7	test_extra	id-1296_AU15-66_AU24-66	emotion	Verdrietig	0.5479864220735946	1.4449950978496418
id-1296_AU17-66_AU26-66_AU4-66	1	1	2	6	8	test_extra	id-1296_AU17-66_AU26-66_AU4-66	emotion	Bang	0.06898688956163937	0.4033965501421335
id-1358_AU15-66_AU2-33_AU26-66	1	1	2	6	9	test_extra	id-1358_AU15-66_AU2-33_AU26-66	emotion	Bang	0.3812087895852358	1.311560924308651
id-1358_AU11-100_AU12-100_AU14-100_AU16Open-66_AU6-100	1	1	2	6	10	test	id-1358_AU11-100_AU12-100_AU14-100_AU16Open-66_AU6-100	emotion	Blij	0.6415250938339649	1.3365633995317694
id-1341_AU14-33_AU4-100_AU7-66	1	1	2	6	11	train	id-1341_AU14-33_AU4-100_AU7-66	emotion	Walging	0.31020569309987683	5.9870065853019705
id-1295_AU1-33_AU16Open-100_AU22-66_AU4-33	1	1	2	6	12	test_extra	id-1295_AU1-33_AU16Open-100_AU22-66_AU4-33	emotion	Verdrietig	0.2405480889739301	6.187069854433503
id-1358_AU11-33_AU2-100	1	1	2	6	13	train	id-1358_AU11-33_AU2-100	emotion	Verrassing	0.36235525580879785	1.5281535556277956
id-1264_AU10Open-33_AU11-100_AU2-66_AU20-100	1	1	2	6	14	test_extra	id-1264_AU10Open-33_AU11-100_AU2-66_AU20-100	emotion	Bang	0.4629261902861062	2.3281965400001354
id-1270_AU1-100_AU11-33_AU24-33_AU6-33	1	1	2	6	15	train	id-1270_AU1-100_AU11-33_AU24-33_AU6-33	emotion	Boos	0.249423518964901	0.8862864159727906
id-1358_AU10Open-33_AU22-100_AU6-100	1	1	2	6	16	train	id-1358_AU10Open-33_AU22-100_AU6-100	emotion	Walging	0.3354618768357187	2.586678708729778
id-1291_AU12-33_AU17-100_AU5-66	1	1	2	6	17	test_extra	id-1291_AU12-33_AU17-100_AU5-66	emotion	Blij	0.3324502830369789	3.878433316268456
id-1290_AU11-66_AU16Open-100_AU43-33_AU6-33	1	1	2	6	18	train	id-1290_AU11-66_AU16Open-100_AU43-33_AU6-33	emotion	Walging	0.11399479344588108	5.18695786565695
id-1306_AU11-33_AU16Open-66	1	1	2	6	19	test_extra	id-1306_AU11-33_AU16Open-66	emotion	Geen van allen	0.0	0.8280217650635677
id-1285_AU11-33_AU17-33_AU5-100_AU7-33	1	1	2	6	20	train	id-1285_AU11-33_AU17-33_AU5-100_AU7-33	emotion	Bang	0.13391573286962086	1.98668873036695
id-1378_AU1-66_AU20-66_AU7-33	1	1	2	6	21	test	id-1378_AU1-66_AU20-66_AU7-33	emotion	Verdrietig	0.19515679376940745	2.6534043984120217
id-1290_AU10Open-33_AU14-66_AU24-66	1	1	2	6	22	test	id-1290_AU10Open-33_AU14-66_AU24-66	emotion	Boos	0.2573793882667574	5.287014856171481
id-1376_AU27i-66_AU6-100	1	1	2	6	23	train	id-1376_AU27i-66_AU6-100	emotion	Bang	0.4350329171655689	0.9366074102163112
id-1310_AU2-66	1	1	2	6	24	test_extra	id-1310_AU2-66	emotion	Boos	0.19405784836676107	4.4536149131617995
id-1366_AU15-100_AU16Open-33_AU27i-33	1	1	2	6	25	test_extra	id-1366_AU15-100_AU16Open-33_AU27i-33	emotion	Verrassing	0.5799905731882012	3.353419672353084
id-1306_AU15-66_AU27i-66_AU43-33	1	1	2	6	26	train	id-1306_AU15-66_AU27i-66_AU43-33	emotion	Bang	0.11698708041732002	4.078303699070602
id-1269_AU17-33	1	1	2	6	27	train	id-1269_AU17-33	emotion	Boos	0.15866178215740798	2.452869327512417
id-1345_AU17-66_AU25-66_AU6-100	1	1	2	6	28	test	id-1345_AU17-66_AU25-66_AU6-100	emotion	Walging	0.2814761781847695	1.3115331535072985
id-1315_AU10Open-100_AU12-66_AU43-100	1	1	2	6	29	test_extra	id-1315_AU10Open-100_AU12-66_AU43-100	emotion	Walging	0.2518441737427672	6.328894734173446
id-1274_AU22-66_AU24-100	1	1	2	6	30	test_extra	id-1274_AU22-66_AU24-100	emotion	Boos	0.3193084864951643	1.2529569866510428
id-1347_AU20-100_AU5-100	1	1	2	6	31	test_extra	id-1347_AU20-100_AU5-100	emotion	Bang	0.4954594691645429	2.328327847593755
id-1339_AU11-100_AU15-66_AU43-33	1	1	2	6	32	test_extra	id-1339_AU11-100_AU15-66_AU43-33	emotion	Verdrietig	0.1665223808435852	1.9365506611866288
id-1358_AU1-33_AU4-33_AU9-33	1	1	2	6	33	train	id-1358_AU1-33_AU4-33_AU9-33	emotion	Bang	0.19775867897416285	2.3281911065823806
id-1356_AU6-33	1	1	2	6	34	test	id-1356_AU6-33	emotion	Walging	0.09277994684516216	0.9945149648392544
id-1309_AU12-66_AU16Open-33_AU2-33_AU24-100_AU26-100	1	1	2	6	35	train	id-1309_AU12-66_AU16Open-33_AU2-33_AU24-100_AU26-100	emotion	Blij	0.2745710893279381	1.8783629836952969
id-1341_AU12-33_AU2-66_AU20-33_AU24-66_AU5-33	1	1	2	6	36	test_extra	id-1341_AU12-33_AU2-66_AU20-33_AU24-66_AU5-33	emotion	Verdrietig	0.21621191599026893	3.3785202509516234
id-1260_AU24-66_AU26-66_AU5-33_AU6-66	1	1	2	7	1	train	id-1260_AU24-66_AU26-66_AU5-33_AU6-66	valence	-0.17391660187420716		4.110717959739303
id-1260_AU24-66_AU26-66_AU5-33_AU6-66	1	1	2	7	1	train	id-1260_AU24-66_AU26-66_AU5-33_AU6-66	arousal	0.312506393992716		4.110717959739303
id-1311_AU25-33	1	1	2	7	2	test_extra	id-1311_AU25-33	valence	-0.00815234071285346		6.6611424907750925
id-1311_AU25-33	1	1	2	7	2	test_extra	id-1311_AU25-33	arousal	-0.5516417215697509		6.6611424907750925
id-1270_AU22-66_AU26-100	1	1	2	7	3	train	id-1270_AU22-66_AU26-100	valence	-0.1630468142570692		3.7357339581358247
id-1270_AU22-66_AU26-100	1	1	2	7	3	train	id-1270_AU22-66_AU26-100	arousal	0.5951208720383027		3.7357339581358247
id-1377_AU17-66_AU24-33_AU4-100	1	1	2	7	4	test	id-1377_AU17-66_AU24-33_AU4-100	valence	-0.4755532082497852		5.5192560323012
id-1377_AU17-66_AU24-33_AU4-100	1	1	2	7	4	test	id-1377_AU17-66_AU24-33_AU4-100	arousal	0.16032936735278475		5.5192560323012
id-1291_AU20-33_AU24-100_AU25-33_AU27i-100	1	1	2	7	5	test	id-1291_AU20-33_AU24-100_AU25-33_AU27i-100	valence	-0.32337618160985393		5.0025108426871165
id-1291_AU20-33_AU24-100_AU25-33_AU27i-100	1	1	2	7	5	test	id-1291_AU20-33_AU24-100_AU25-33_AU27i-100	arousal	0.13043745140565535		5.0025108426871165
id-1311_AU27i-100_AU4-66	1	1	2	7	6	test_extra	id-1311_AU27i-100_AU4-66	valence	-0.42120427016409545		3.81929750738982
id-1311_AU27i-100_AU4-66	1	1	2	7	6	test_extra	id-1311_AU27i-100_AU4-66	arousal	0.41305192945124203		3.81929750738982
id-1315_AU15-33_AU20-100	1	1	2	7	7	test_extra	id-1315_AU15-33_AU20-100	valence	-0.5380544870483285		4.319216609837895
id-1315_AU15-33_AU20-100	1	1	2	7	7	test_extra	id-1315_AU15-33_AU20-100	arousal	-0.2282655399598969		4.319216609837895
id-1335_AU11-66_AU14-100	1	1	2	7	8	test_extra	id-1335_AU11-66_AU14-100	valence	0.5951208720383027		3.3024970780288636
id-1335_AU11-66_AU14-100	1	1	2	7	8	test_extra	id-1335_AU11-66_AU14-100	arousal	0.20652596472562101		3.3024970780288636
id-1380_AU13-66_AU20-66_AU22-100_AU5-100	1	1	2	7	9	test_extra	id-1380_AU13-66_AU20-66_AU22-100_AU5-100	valence	-0.1847863894913451		2.6856031335119046
id-1380_AU13-66_AU20-66_AU22-100_AU5-100	1	1	2	7	9	test_extra	id-1380_AU13-66_AU20-66_AU22-100_AU5-100	arousal	-0.14674213283136228		2.6856031335119046
id-1318_AU12-100_AU14-100_AU26-33_AU6-66	1	1	2	7	10	train	id-1318_AU12-100_AU14-100_AU26-33_AU6-66	valence	-0.09511064164995704		7.194673016922934
id-1318_AU12-100_AU14-100_AU26-33_AU6-66	1	1	2	7	10	train	id-1318_AU12-100_AU14-100_AU26-33_AU6-66	arousal	-0.29620171256700906		7.194673016922934
id-1360_AU24-66_AU26-33_AU5-100_AU7-33	1	1	2	7	11	test_extra	id-1360_AU24-66_AU26-33_AU5-100_AU7-33	valence	-0.11413276997994845		3.927428254737608
id-1360_AU24-66_AU26-33_AU5-100_AU7-33	1	1	2	7	11	test_extra	id-1360_AU24-66_AU26-33_AU5-100_AU7-33	arousal	0.3994646949298196		3.927428254737608
id-1345_AU11-33_AU25-33_AU9-66	1	1	2	7	12	test_extra	id-1345_AU11-33_AU25-33_AU9-66	valence	-0.13858979211850886		4.977496293201511
id-1345_AU11-33_AU25-33_AU9-66	1	1	2	7	12	test_extra	id-1345_AU11-33_AU25-33_AU9-66	arousal	-0.3913123542169661		4.977496293201511
id-1307_AU10Open-66_AU17-33_AU22-33_AU9-100	1	1	2	7	13	test	id-1307_AU10Open-66_AU17-33_AU22-33_AU9-100	valence	-0.7065361951139666		5.344264363541697
id-1307_AU10Open-66_AU17-33_AU22-33_AU9-100	1	1	2	7	13	test	id-1307_AU10Open-66_AU17-33_AU22-33_AU9-100	arousal	0.1711991549699227		5.344264363541697
id-1260_AU1-100_AU16Open-100_AU2-33	1	1	2	7	14	test_extra	id-1260_AU1-100_AU16Open-100_AU2-33	valence	0.07608851331996565		5.677699020052388
id-1260_AU1-100_AU16Open-100_AU2-33	1	1	2	7	14	test_extra	id-1260_AU1-100_AU16Open-100_AU2-33	arousal	0.6222953410811475		5.677699020052388
id-1362_AU13-100_AU20-33_AU43-33	1	1	2	7	15	test_extra	id-1362_AU13-100_AU20-33_AU43-33	valence	0.02173957523427589		4.485883980835752
id-1362_AU13-100_AU20-33_AU43-33	1	1	2	7	15	test_extra	id-1362_AU13-100_AU20-33_AU43-33	arousal	-0.3097889470884315		4.485883980835752
id-1309_AU20-100_AU25-66	1	1	2	7	16	test_extra	id-1309_AU20-100_AU25-66	valence	-0.14674213283136228		3.1773165678187074
id-1309_AU20-100_AU25-66	1	1	2	7	16	test_extra	id-1309_AU20-100_AU25-66	arousal	0.19293873020419855		3.1773165678187074
id-1347_AU10Open-100_AU25-100	1	1	2	7	17	test_extra	id-1347_AU10Open-100_AU25-100	valence	-0.20380851782133647		4.35248965235769
id-1347_AU10Open-100_AU25-100	1	1	2	7	17	test_extra	id-1347_AU10Open-100_AU25-100	arousal	0.2092434116299055		4.35248965235769
id-1293_AU13-100	1	1	2	7	18	train	id-1293_AU13-100	valence	0.05978383189425871		4.194137523423707
id-1293_AU13-100	1	1	2	7	18	train	id-1293_AU13-100	arousal	-0.26902724352416424		4.194137523423707
id-1273_AU12-100_AU16Open-33_AU20-100_AU22-66_AU5-66	1	1	2	7	19	test	id-1273_AU12-100_AU16Open-33_AU20-100_AU22-66_AU5-66	valence	0.5842510844211647		3.619077272858704
id-1273_AU12-100_AU16Open-33_AU20-100_AU22-66_AU5-66	1	1	2	7	19	test	id-1273_AU12-100_AU16Open-33_AU20-100_AU22-66_AU5-66	arousal	0.010869787617137949		3.619077272858704
id-1280_AU15-33_AU27i-66	1	1	2	7	20	test_extra	id-1280_AU15-33_AU27i-66	valence	-0.07065361951139666		5.344307529026993
id-1280_AU15-33_AU27i-66	1	1	2	7	20	test_extra	id-1280_AU15-33_AU27i-66	arousal	0.4837055489626387		5.344307529026993
id-1315_AU1-66_AU20-66	1	1	2	7	21	test_extra	id-1315_AU1-66_AU20-66	valence	-0.3641378851741212		3.160822220987938
id-1315_AU1-66_AU20-66	1	1	2	7	21	test_extra	id-1315_AU1-66_AU20-66	arousal	-0.1250025575970864		3.160822220987938
id-1274_AU14-33_AU6-33	1	1	2	7	22	train	id-1274_AU14-33_AU6-33	valence	-0.13587234521422434		6.47776102138596
id-1274_AU14-33_AU6-33	1	1	2	7	22	train	id-1274_AU14-33_AU6-33	arousal	-0.2282655399598969		6.47776102138596
id-1293_AU2-66_AU22-33_AU26-66_AU9-66	1	1	2	7	23	train	id-1293_AU2-66_AU22-33_AU26-66_AU9-66	valence	-0.1440246859270778		7.569578837683366
id-1293_AU2-66_AU22-33_AU26-66_AU9-66	1	1	2	7	23	train	id-1293_AU2-66_AU22-33_AU26-66_AU9-66	arousal	-0.16032936735278475		7.569578837683366
id-1311_AU16Open-100_AU43-100_AU6-66_AU9-100	1	1	2	7	24	test	id-1311_AU16Open-100_AU43-100_AU6-66_AU9-100	valence	-0.2744621373327332		2.085520485191409
id-1311_AU16Open-100_AU43-100_AU6-66_AU9-100	1	1	2	7	24	test	id-1311_AU16Open-100_AU43-100_AU6-66_AU9-100	arousal	0.17935149568277614		2.085520485191409
id-1366_AU14-33_AU25-33	1	1	2	7	25	train	id-1366_AU14-33_AU25-33	valence	0.14130723902279332		2.3772168344185047
id-1366_AU14-33_AU25-33	1	1	2	7	25	train	id-1366_AU14-33_AU25-33	arousal	-0.2771795842370177		2.3772168344185047
id-1269_AU1-66_AU16Open-33_AU20-66	1	1	2	7	26	test_extra	id-1269_AU1-66_AU16Open-33_AU20-66	valence	-0.20380851782133647		2.252229814249404
id-1269_AU1-66_AU16Open-33_AU20-66	1	1	2	7	26	test_extra	id-1269_AU1-66_AU16Open-33_AU20-66	arousal	0.19837362401276756		2.252229814249404
id-1355_AU10Open-100_AU12-100_AU27i-66	1	1	2	7	27	test_extra	id-1355_AU10Open-100_AU12-100_AU27i-66	valence	-0.3587029913655523		4.235790103452928
id-1355_AU10Open-100_AU12-100_AU27i-66	1	1	2	7	27	test_extra	id-1355_AU10Open-100_AU12-100_AU27i-66	arousal	0.6331651286982856		4.235790103452928
id-1380_AU11-66_AU13-33	1	1	2	7	28	train	id-1380_AU11-66_AU13-33	valence	-0.14130723902279332		2.9443765938021897
id-1380_AU11-66_AU13-33	1	1	2	7	28	train	id-1380_AU11-66_AU13-33	arousal	-0.41305192945124203		2.9443765938021897
id-1339_AU16Open-66_AU24-100_AU43-33_AU7-100	1	1	2	7	29	test_extra	id-1339_AU16Open-66_AU24-100_AU43-33_AU7-100	valence	-0.0054348938085689745		1.993598528388248
id-1339_AU16Open-66_AU24-100_AU43-33_AU7-100	1	1	2	7	29	test_extra	id-1339_AU16Open-66_AU24-100_AU43-33_AU7-100	arousal	-0.312506393992716		1.993598528388248
id-1367_AU25-66_AU4-66_AU6-33	1	1	2	7	30	test	id-1367_AU25-66_AU4-66_AU6-33	valence	0.01902212832999141		3.8108760118229834
id-1367_AU25-66_AU4-66_AU6-33	1	1	2	7	30	test	id-1367_AU25-66_AU4-66_AU6-33	arousal	0.29348426566272456		3.8108760118229834
id-1363_AU25-33_AU27i-66	1	1	2	7	31	test_extra	id-1363_AU25-33_AU27i-66	valence	0.02717446904284487		1.6270858286807195
id-1363_AU25-33_AU27i-66	1	1	2	7	31	test_extra	id-1363_AU25-33_AU27i-66	arousal	0.3369634161312764		1.6270858286807195
id-1279_AU17-66_AU20-33_AU24-100_AU27i-66	1	1	2	7	32	test_extra	id-1279_AU17-66_AU20-33_AU24-100_AU27i-66	valence	-0.2500051151941728		3.3940888037786863
id-1279_AU17-66_AU20-33_AU24-100_AU27i-66	1	1	2	7	32	test_extra	id-1279_AU17-66_AU20-33_AU24-100_AU27i-66	arousal	0.3722902258869748		3.3940888037786863
id-1270_AU12-100_AU13-100_AU14-66_AU2-100_AU25-66	1	1	2	7	33	test_extra	id-1270_AU12-100_AU13-100_AU14-66_AU2-100_AU25-66	valence	0.50272767729263		5.385912113865743
id-1270_AU12-100_AU13-100_AU14-66_AU2-100_AU25-66	1	1	2	7	33	test_extra	id-1270_AU12-100_AU13-100_AU14-66_AU2-100_AU25-66	arousal	0.14674213283136228		5.385912113865743
id-1280_AU11-33_AU17-66_AU2-66_AU26-66_AU9-66	1	1	2	7	34	test	id-1280_AU11-33_AU17-66_AU2-66_AU26-66_AU9-66	valence	-0.3695727789826902		8.819811870931519
id-1280_AU11-33_AU17-66_AU2-66_AU26-66_AU9-66	1	1	2	7	34	test	id-1280_AU11-33_AU17-66_AU2-66_AU26-66_AU9-66	arousal	0.12228511069280193		8.819811870931519
id-1273_AU15-100_AU2-100	1	1	2	7	35	test_extra	id-1273_AU15-100_AU2-100	valence	-0.11141532307566396		1.6521858035657715
id-1273_AU15-100_AU2-100	1	1	2	7	35	test_extra	id-1273_AU15-100_AU2-100	arousal	-0.3478332037484143		1.6521858035657715
id-1355_AU2-66_AU4-100_AU6-33	1	1	2	7	36	test_extra	id-1355_AU2-66_AU4-100_AU6-33	valence	-0.08695830093710358		5.644417223692473
id-1355_AU2-66_AU4-100_AU6-33	1	1	2	7	36	test_extra	id-1355_AU2-66_AU4-100_AU6-33	arousal	0.19293873020419855		5.644417223692473
id-1355_AU13-66_AU14-100_AU15-100_AU7-33	1	1	2	8	1	test	id-1355_AU13-66_AU14-100_AU15-100_AU7-33	valence	-0.201091070917052		7.0445093503085445
id-1355_AU13-66_AU14-100_AU15-100_AU7-33	1	1	2	8	1	test	id-1355_AU13-66_AU14-100_AU15-100_AU7-33	arousal	-0.3260936285141384		7.0445093503085445
id-1302_AU17-66_AU27i-100_AU4-100_AU6-33_AU7-100	1	1	2	8	2	test_extra	id-1302_AU17-66_AU27i-100_AU4-100_AU6-33_AU7-100	valence	-0.5163149118140525		2.7772422507396186
id-1302_AU17-66_AU27i-100_AU4-100_AU6-33_AU7-100	1	1	2	8	2	test_extra	id-1302_AU17-66_AU27i-100_AU4-100_AU6-33_AU7-100	arousal	0.4320740577812335		2.7772422507396186
id-1342_AU12-100_AU20-100_AU6-66	1	1	2	8	3	train	id-1342_AU12-100_AU20-100_AU6-66	valence	-0.4972927834840611		2.377100317795339
id-1342_AU12-100_AU20-100_AU6-66	1	1	2	8	3	train	id-1342_AU12-100_AU20-100_AU6-66	arousal	0.2554400090027418		2.377100317795339
id-1363_AU16Open-66_AU20-100_AU5-33	1	1	2	8	4	test_extra	id-1363_AU16Open-66_AU20-100_AU5-33	valence	-0.105980429267095		3.1941118656177423
id-1363_AU16Open-66_AU20-100_AU5-33	1	1	2	8	4	test_extra	id-1363_AU16Open-66_AU20-100_AU5-33	arousal	0.3043540532798626		3.1941118656177423
id-1362_AU11-100_AU17-33_AU43-66	1	1	2	8	5	train	id-1362_AU11-100_AU17-33_AU43-66	valence	-0.08695830093710358		7.577770318566762
id-1362_AU11-100_AU17-33_AU43-66	1	1	2	8	5	train	id-1362_AU11-100_AU17-33_AU43-66	arousal	-0.26902724352416424		7.577770318566762
id-1356_AU20-33_AU27i-66_AU4-66_AU43-33	1	1	2	8	6	test_extra	id-1356_AU20-33_AU27i-66_AU4-66_AU43-33	valence	-0.13043745140565535		2.8607258080091924
id-1356_AU20-33_AU27i-66_AU4-66_AU43-33	1	1	2	8	6	test_extra	id-1356_AU20-33_AU27i-66_AU4-66_AU43-33	arousal	0.5299021463354749		2.8607258080091924
id-1310_AU12-33_AU14-33_AU22-100_AU6-100	1	1	2	8	7	test	id-1310_AU12-33_AU14-33_AU22-100_AU6-100	valence	0.625012787985432		1.9356828236377623
id-1310_AU12-33_AU14-33_AU22-100_AU6-100	1	1	2	8	7	test	id-1310_AU12-33_AU14-33_AU22-100_AU6-100	arousal	-0.14130723902279332		1.9356828236377623
id-1264_AU15-66_AU24-33_AU4-100	1	1	2	8	8	train	id-1264_AU15-66_AU24-33_AU4-100	valence	-0.11956766378851742		6.344406236114992
id-1264_AU15-66_AU24-33_AU4-100	1	1	2	8	8	train	id-1264_AU15-66_AU24-33_AU4-100	arousal	-0.2472876682898883		6.344406236114992
id-1342_AU11-33_AU4-100_AU43-100_AU5-33	1	1	2	8	9	test_extra	id-1342_AU11-33_AU4-100_AU43-100_AU5-33	valence	0.06793617260711217		5.2027374162044016
id-1342_AU11-33_AU4-100_AU43-100_AU5-33	1	1	2	8	9	test_extra	id-1342_AU11-33_AU4-100_AU43-100_AU5-33	arousal	-0.5271846994311905		5.2027374162044016
id-1373_AU1-100_AU13-33_AU27i-33_AU6-33	1	1	2	8	10	train	id-1373_AU1-100_AU13-33_AU27i-33_AU6-33	valence	-0.09782808855424154		2.4105436074032696
id-1373_AU1-100_AU13-33_AU27i-33_AU6-33	1	1	2	8	10	train	id-1373_AU1-100_AU13-33_AU27i-33_AU6-33	arousal	0.4429438453983714		2.4105436074032696
id-1269_AU11-100_AU13-33_AU25-100	1	1	2	8	11	test_extra	id-1269_AU11-100_AU13-33_AU25-100	valence	-0.0842408540328191		2.0522091068905866
id-1269_AU11-100_AU13-33_AU25-100	1	1	2	8	11	test_extra	id-1269_AU11-100_AU13-33_AU25-100	arousal	0.11685021688423293		2.0522091068905866
id-1356_AU2-33_AU24-100_AU7-100	1	1	2	8	12	test_extra	id-1356_AU2-33_AU24-100_AU7-100	valence	-0.1032629823628105		5.0607821344392505
id-1356_AU2-33_AU24-100_AU7-100	1	1	2	8	12	test_extra	id-1356_AU2-33_AU24-100_AU7-100	arousal	-0.36685533207840576		5.0607821344392505
id-1274_AU2-33_AU20-100_AU25-66_AU6-66	1	1	2	8	13	train	id-1274_AU2-33_AU20-100_AU25-66_AU6-66	valence	-0.1684817080656382		6.102769473369335
id-1274_AU2-33_AU20-100_AU25-66_AU6-66	1	1	2	8	13	train	id-1274_AU2-33_AU20-100_AU25-66_AU6-66	arousal	0.21739575234275896		6.102769473369335
id-1376_AU10Open-100_AU11-66_AU13-100_AU6-100	1	1	2	8	14	train	id-1376_AU10Open-100_AU11-66_AU13-100_AU6-100	valence	0.3315285223227074		4.3358473958232935
id-1376_AU10Open-100_AU11-66_AU13-100_AU6-100	1	1	2	8	14	train	id-1376_AU10Open-100_AU11-66_AU13-100_AU6-100	arousal	-0.14130723902279332		4.3358473958232935
id-1311_AU20-33_AU22-100_AU24-66_AU5-66	1	1	2	8	15	train	id-1311_AU20-33_AU22-100_AU24-66_AU5-66	valence	-0.1250025575970864		6.4361784720740625
id-1311_AU20-33_AU22-100_AU24-66_AU5-66	1	1	2	8	15	train	id-1311_AU20-33_AU22-100_AU24-66_AU5-66	arousal	-0.1875038363956296		6.4361784720740625
id-1366_AU15-66_AU24-33_AU4-100_AU9-100	1	1	2	8	16	train	id-1366_AU15-66_AU24-33_AU4-100_AU9-100	valence	-0.07608851331996565		5.886768179008868
id-1366_AU15-66_AU24-33_AU4-100_AU9-100	1	1	2	8	16	train	id-1366_AU15-66_AU24-33_AU4-100_AU9-100	arousal	-0.22283064615132792		5.886768179008868
id-1363_AU2-66_AU24-100_AU26-33	1	1	2	8	17	train	id-1363_AU2-66_AU24-100_AU26-33	valence	0.05978383189425871		1.451989415702883
id-1363_AU2-66_AU24-100_AU26-33	1	1	2	8	17	train	id-1363_AU2-66_AU24-100_AU26-33	arousal	0.4510961861112248		1.451989415702883
id-1347_AU1-100_AU11-66_AU25-33_AU5-33	1	1	2	8	18	test_extra	id-1347_AU1-100_AU11-66_AU25-33_AU5-33	valence	-0.010869787617137949		3.15219667040219
id-1347_AU1-100_AU11-66_AU25-33_AU5-33	1	1	2	8	18	test_extra	id-1347_AU1-100_AU11-66_AU25-33_AU5-33	arousal	0.5271846994311905		3.15219667040219
id-1362_AU5-33_AU6-66_AU7-33	1	1	2	8	19	test	id-1362_AU5-33_AU6-66_AU7-33	valence	-0.05434893808568974		3.1273415011692123
id-1362_AU5-33_AU6-66_AU7-33	1	1	2	8	19	test	id-1362_AU5-33_AU6-66_AU7-33	arousal	-0.3885949073126817		3.1273415011692123
id-1373_AU6-66_AU7-66	1	1	2	8	20	test_extra	id-1373_AU6-66_AU7-66	valence	-0.03260936285141384		5.785955339722023
id-1373_AU6-66_AU7-66	1	1	2	8	20	test_extra	id-1373_AU6-66_AU7-66	arousal	-0.30163660637557804		5.785955339722023
id-1345_AU26-66_AU27i-100_AU9-100	1	1	2	8	21	test_extra	id-1345_AU26-66_AU27i-100_AU9-100	valence	0.09782808855424154		3.17734071634186
id-1345_AU26-66_AU27i-100_AU9-100	1	1	2	8	21	test_extra	id-1345_AU26-66_AU27i-100_AU9-100	arousal	0.5190323587183371		3.17734071634186
id-1266_AU25-33_AU4-33	1	1	2	8	22	test_extra	id-1266_AU25-33_AU4-33	valence	-0.08967574784138807		4.285920626219195
id-1266_AU25-33_AU4-33	1	1	2	8	22	test_extra	id-1266_AU25-33_AU4-33	arousal	-0.15761192044850025		4.285920626219195
id-1366_AU14-33_AU2-100_AU26-100_AU27i-100	1	1	2	8	23	test	id-1366_AU14-33_AU2-100_AU26-100_AU27i-100	valence	0.09511064164995704		3.0275344478677653
id-1366_AU14-33_AU2-100_AU26-100_AU27i-100	1	1	2	8	23	test	id-1366_AU14-33_AU2-100_AU26-100_AU27i-100	arousal	0.4809881020583541		3.0275344478677653
id-1344_AU2-33_AU20-100_AU24-100	1	1	2	8	24	test	id-1344_AU2-33_AU20-100_AU24-100	valence	-0.4538136330155093		3.677496172458632
id-1344_AU2-33_AU20-100_AU24-100	1	1	2	8	24	test	id-1344_AU2-33_AU20-100_AU24-100	arousal	0.1820689425870606		3.677496172458632
id-1295_AU11-66_AU24-66_AU43-100_AU6-33	1	1	2	8	25	test_extra	id-1295_AU11-66_AU24-66_AU43-100_AU6-33	valence	-0.26359234971559525		5.044243112841286
id-1295_AU11-66_AU24-66_AU43-100_AU6-33	1	1	2	8	25	test_extra	id-1295_AU11-66_AU24-66_AU43-100_AU6-33	arousal	-0.2500051151941728		5.044243112841286
id-1294_AU11-66_AU20-33_AU25-33	1	1	2	8	26	test	id-1294_AU11-66_AU20-33_AU25-33	valence	-0.05163149118140525		2.0772170155323693
id-1294_AU11-66_AU20-33_AU25-33	1	1	2	8	26	test	id-1294_AU11-66_AU20-33_AU25-33	arousal	-0.3695727789826902		2.0772170155323693
id-1373_AU12-66_AU15-66_AU16Open-33	1	1	2	8	27	train	id-1373_AU12-66_AU15-66_AU16Open-33	valence	0.2500051151941728		2.052333773641294
id-1373_AU12-66_AU15-66_AU16Open-33	1	1	2	8	27	train	id-1373_AU12-66_AU15-66_AU16Open-33	arousal	-0.2771795842370177		2.052333773641294
id-1363_AU14-100_AU22-33	1	1	2	8	28	train	id-1363_AU14-100_AU22-33	valence	0.15761192044850025		2.3772488312115456
id-1363_AU14-100_AU22-33	1	1	2	8	28	train	id-1363_AU14-100_AU22-33	arousal	-0.23370043376846586		2.3772488312115456
id-1309_AU10Open-100_AU2-100_AU27i-33	1	1	2	8	29	train	id-1309_AU10Open-100_AU2-100_AU27i-33	valence	0.1250025575970864		1.868881669822258
id-1309_AU10Open-100_AU2-100_AU27i-33	1	1	2	8	29	train	id-1309_AU10Open-100_AU2-100_AU27i-33	arousal	0.5733812968040267		1.868881669822258
id-1285_AU10Open-66_AU17-100_AU9-66	1	1	2	8	30	test_extra	id-1285_AU10Open-66_AU17-100_AU9-66	valence	-0.4701183144412162		2.9440134603864863
id-1285_AU10Open-66_AU17-100_AU9-66	1	1	2	8	30	test_extra	id-1285_AU10Open-66_AU17-100_AU9-66	arousal	0.13587234521422434		2.9440134603864863
id-1354_AU16Open-33_AU20-33_AU25-100_AU7-66	1	1	2	8	31	test_extra	id-1354_AU16Open-33_AU20-33_AU25-100_AU7-66	valence	-0.23370043376846586		1.4690310284368024
id-1354_AU16Open-33_AU20-33_AU25-100_AU7-66	1	1	2	8	31	test_extra	id-1354_AU16Open-33_AU20-33_AU25-100_AU7-66	arousal	0.17391660187420716		1.4690310284368024
id-1323_AU2-33_AU22-66	1	1	2	8	32	test_extra	id-1323_AU2-33_AU22-66	valence	-0.010869787617137949		2.2188194270038366
id-1323_AU2-33_AU22-66	1	1	2	8	32	test_extra	id-1323_AU2-33_AU22-66	arousal	0.3423983099398454		2.2188194270038366
id-1367_AU16Open-100	1	1	2	8	33	test_extra	id-1367_AU16Open-100	valence	-0.06793617260711217		8.619685513784134
id-1367_AU16Open-100	1	1	2	8	33	test_extra	id-1367_AU16Open-100	arousal	-0.2092434116299055		8.619685513784134
id-1360_AU1-100_AU11-66	1	1	2	8	34	test	id-1360_AU1-100_AU11-66	valence	-0.1657642611613537		4.777981799258669
id-1360_AU1-100_AU11-66	1	1	2	8	34	test	id-1360_AU1-100_AU11-66	arousal	-0.11141532307566396		4.777981799258669
id-1307_AU13-66_AU14-66_AU43-33	1	1	2	8	35	test_extra	id-1307_AU13-66_AU14-66_AU43-33	valence	-0.09782808855424154		5.511056703147916
id-1307_AU13-66_AU14-66_AU43-33	1	1	2	8	35	test_extra	id-1307_AU13-66_AU14-66_AU43-33	arousal	-0.11956766378851742		5.511056703147916
id-1360_AU12-100_AU43-66_AU7-33	1	1	2	8	36	train	id-1360_AU12-100_AU43-66_AU7-33	valence	-0.1440246859270778		3.802365166721757
id-1360_AU12-100_AU43-66_AU7-33	1	1	2	8	36	train	id-1360_AU12-100_AU43-66_AU7-33	arousal	-0.1521770266399313		3.802365166721757
id-1380_AU2-33_AU25-100_AU7-33	1	1	3	9	1	test_extra	id-1380_AU2-33_AU25-100_AU7-33	emotion	Walging	0.16620548183858744	5.495376463399223
id-1297_AU1-100_AU11-33_AU14-33_AU24-66	1	1	3	9	2	test_extra	id-1297_AU1-100_AU11-33_AU14-33_AU24-66	emotion	Walging	0.2839254005470582	5.66217725498791
id-1270_AU2-33_AU24-66_AU4-66	1	1	3	9	3	test_extra	id-1270_AU2-33_AU24-66_AU4-66	emotion	Verdrietig	0.2631240003404925	9.012376419932481
id-1307_AU1-66_AU10Open-100_AU6-33	1	1	3	9	4	train	id-1307_AU1-66_AU10Open-100_AU6-33	emotion	Walging	0.4557652899064013	1.2697598308641318
id-1318_AU22-100_AU26-100_AU27i-33_AU4-33_AU6-33	1	1	3	9	5	test	id-1318_AU22-100_AU26-100_AU27i-33_AU4-33_AU6-33	emotion	Bang	0.4743803123969202	0.8951893727171409
id-1376_AU12-33_AU17-100_AU22-100_AU26-100	1	1	3	9	6	test_extra	id-1376_AU12-33_AU17-100_AU22-100_AU26-100	emotion	Blij	0.6652962705784051	1.4448517159944458
id-1342_AU14-33_AU20-33_AU43-100	1	1	3	9	7	train	id-1342_AU14-33_AU20-33_AU43-100	emotion	Blij	0.4134476090295946	3.8700785309974886
id-1380_AU10Open-33_AU13-33_AU16Open-100_AU22-33_AU43-66	1	1	3	9	8	test	id-1380_AU10Open-33_AU13-33_AU16Open-100_AU22-33_AU43-66	emotion	Geen van allen	0.0	6.5288906892947125
id-1315_AU14-66_AU22-33_AU24-66_AU6-100	1	1	3	9	9	test_extra	id-1315_AU14-66_AU22-33_AU24-66_AU6-100	emotion	Blij	0.16796724029833685	2.1615611657944096
id-1341_AU1-33_AU15-33_AU2-66_AU4-33	1	1	3	9	10	test	id-1341_AU1-33_AU15-33_AU2-66_AU4-33	emotion	Bang	0.15518289791991635	1.928589496841596
id-1309_AU11-66_AU24-66	1	1	3	9	11	test	id-1309_AU11-66_AU24-66	emotion	Verdrietig	0.2633928569749638	1.2612897363942466
id-1341_AU10Open-66_AU11-33_AU25-33_AU9-100	1	1	3	9	12	test_extra	id-1341_AU10Open-66_AU11-33_AU25-33_AU9-100	emotion	Walging	0.4564431447506447	1.1030248440001742
id-1309_AU26-33_AU5-66	1	1	3	9	13	test_extra	id-1309_AU26-33_AU5-66	emotion	Verrassing	0.5651635579928819	1.894946076348788
id-1273_AU11-100_AU15-33_AU20-33	1	1	3	9	14	test_extra	id-1273_AU11-100_AU15-33_AU20-33	emotion	Verdrietig	0.15477666014069186	6.620492678166556
id-1310_AU2-100_AU25-66_AU6-66_AU7-100	1	1	3	9	15	test_extra	id-1310_AU2-100_AU25-66_AU6-66_AU7-100	emotion	Boos	0.17655260289302568	1.7364840716345498
id-1260_AU12-66_AU25-33	1	1	3	9	16	test	id-1260_AU12-66_AU25-33	emotion	Blij	0.24291077147071224	2.8451475957735965
id-1363_AU14-33_AU27i-66	1	1	3	9	17	test_extra	id-1363_AU14-33_AU27i-66	emotion	Verrassing	0.2440258367902947	2.161458232714722
id-1360_AU10Open-66_AU20-33	1	1	3	9	18	test_extra	id-1360_AU10Open-66_AU20-33	emotion	Bang	0.3169449414495105	3.2784514880331703
id-1370_AU25-66	1	1	3	9	19	test_extra	id-1370_AU25-66	emotion	Blij	0.21814962602172688	0.9780366164050064
id-1293_AU22-66_AU25-100_AU5-33_AU9-33	1	1	3	9	20	test	id-1293_AU22-66_AU25-100_AU5-33_AU9-33	emotion	Boos	0.19934114020017374	4.936936433843584
id-1293_AU1-100_AU12-33_AU13-33_AU22-100	1	1	3	9	21	train	id-1293_AU1-100_AU12-33_AU13-33_AU22-100	emotion	Blij	0.2760038678133952	1.2032092179742904
id-1339_AU22-33_AU25-100_AU27i-100_AU4-66	1	1	3	9	22	test_extra	id-1339_AU22-33_AU25-100_AU27i-100_AU4-66	emotion	Verrassing	0.6562404153901231	0.9864602249672316
id-1356_AU1-33_AU12-33_AU24-33_AU6-100	1	1	3	9	23	test_extra	id-1356_AU1-33_AU12-33_AU24-33_AU6-100	emotion	Walging	0.1730942006616798	2.4617511543001456
id-1335_AU1-66	1	1	3	9	24	train	id-1335_AU1-66	emotion	Verrassing	0.2377990328924528	2.036737751868713
id-1294_AU16Open-66_AU7-100	1	1	3	9	25	test_extra	id-1294_AU16Open-66_AU7-100	emotion	Bang	0.06870948680953404	5.170352133764029
id-1260_AU11-66_AU14-66_AU43-33	1	1	3	9	26	test_extra	id-1260_AU11-66_AU14-66_AU43-33	emotion	Verdrietig	0.2505211772879245	1.8948618583744967
id-1296_AU14-66_AU4-66_AU43-100_AU6-66	1	1	3	9	27	test_extra	id-1296_AU14-66_AU4-66_AU43-100_AU6-66	emotion	Verdrietig	0.3736440073738521	1.3364806908411992
id-1297_AU11-100_AU12-66_AU4-33_AU6-33	1	1	3	9	28	train	id-1297_AU11-100_AU12-66_AU4-33_AU6-33	emotion	Walging	0.09971860389453842	1.6280267155125332
id-1274_AU15-100_AU16Open-66_AU24-33	1	1	3	9	29	test_extra	id-1274_AU15-100_AU16Open-66_AU24-33	emotion	Boos	0.4210131210505725	1.1529335022114535
id-1270_AU11-100_AU15-100_AU20-66_AU7-66	1	1	3	9	30	test	id-1270_AU11-100_AU15-100_AU20-66_AU7-66	emotion	Bang	0.20626462668321768	5.536960521994843
id-1344_AU12-66_AU20-33	1	1	3	9	31	test_extra	id-1344_AU12-66_AU20-33	emotion	Blij	0.1637962428251181	1.844555353245596
id-1291_AU17-33_AU24-66	1	1	3	9	32	test_extra	id-1291_AU17-33_AU24-66	emotion	Verdrietig	0.2621172166909018	1.3363354978446296
id-1296_AU16Open-100_AU17-100_AU27i-33	1	1	3	9	33	train	id-1296_AU16Open-100_AU17-100_AU27i-33	emotion	Verrassing	0.5609694566442802	1.0697892316893558
id-1347_AU11-100_AU16Open-100_AU22-100_AU24-33	1	1	3	9	34	test_extra	id-1347_AU11-100_AU16Open-100_AU22-100_AU24-33	emotion	Bang	0.2106455055496892	4.03694361802809
id-1356_AU12-33_AU15-66_AU16Open-66_AU6-33_AU9-100	1	1	3	9	35	train	id-1356_AU12-33_AU15-66_AU16Open-66_AU6-33_AU9-100	emotion	Blij	0.3750095681767257	3.1286177506135573
id-1315_AU14-100_AU26-66	1	1	3	9	36	test_extra	id-1315_AU14-100_AU26-66	emotion	Bang	0.31398462186935544	4.6785007510188725
id-1310_AU13-66	1	1	3	10	1	test_extra	id-1310_AU13-66	valence	-0.08695830093710358		6.169526857987876
id-1310_AU13-66	1	1	3	10	1	test_extra	id-1310_AU13-66	arousal	-0.30163660637557804		6.169526857987876
id-1295_AU1-100_AU16Open-100_AU24-33_AU4-100	1	1	3	10	2	train	id-1295_AU1-100_AU16Open-100_AU24-33_AU4-100	valence	-0.14945957973564675		3.6773784484084895
id-1295_AU1-100_AU16Open-100_AU24-33_AU4-100	1	1	3	10	2	train	id-1295_AU1-100_AU16Open-100_AU24-33_AU4-100	arousal	-0.11413276997994845		3.6773784484084895
id-1310_AU10Open-33_AU16Open-33_AU20-66_AU26-100	1	1	3	10	3	test_extra	id-1310_AU10Open-33_AU16Open-33_AU20-66_AU26-100	valence	-0.7065361951139666		6.2861657337289225
id-1310_AU10Open-33_AU16Open-33_AU20-66_AU26-100	1	1	3	10	3	test_extra	id-1310_AU10Open-33_AU16Open-33_AU20-66_AU26-100	arousal	0.6657744915496994		6.2861657337289225
id-1335_AU1-33_AU14-66_AU2-33	1	1	3	10	4	train	id-1335_AU1-33_AU14-66_AU2-33	valence	0.5380544870483285		3.6858443168857775
id-1335_AU1-33_AU14-66_AU2-33	1	1	3	10	4	train	id-1335_AU1-33_AU14-66_AU2-33	arousal	0.13858979211850886		3.6858443168857775
id-1285_AU16Open-33_AU5-33	1	1	3	10	5	test	id-1285_AU16Open-33_AU5-33	valence	0.04891404427712077		3.7274114715146425
id-1285_AU16Open-33_AU5-33	1	1	3	10	5	test	id-1285_AU16Open-33_AU5-33	arousal	0.312506393992716		3.7274114715146425
id-1264_AU10Open-33_AU25-66_AU4-66	1	1	3	10	6	test	id-1264_AU10Open-33_AU25-66_AU4-66	valence	-0.2907668187584401		3.2107130696640525
id-1264_AU10Open-33_AU25-66_AU4-66	1	1	3	10	6	test	id-1264_AU10Open-33_AU25-66_AU4-66	arousal	-0.11141532307566396		3.2107130696640525
id-1376_AU13-66_AU16Open-100	1	1	3	10	7	train	id-1376_AU13-66_AU16Open-100	valence	-0.2418527744813193		10.753363587409694
id-1376_AU13-66_AU16Open-100	1	1	3	10	7	train	id-1376_AU13-66_AU16Open-100	arousal	-0.1250025575970864		10.753363587409694
id-1293_AU22-100_AU24-33	1	1	3	10	8	test_extra	id-1293_AU22-100_AU24-33	valence	-0.3260936285141384		3.827452463632653
id-1293_AU22-100_AU24-33	1	1	3	10	8	test_extra	id-1293_AU22-100_AU24-33	arousal	-0.4728357613455008		3.827452463632653
id-1315_AU15-100_AU2-33_AU25-33_AU26-66	1	1	3	10	9	train	id-1315_AU15-100_AU2-33_AU25-33_AU26-66	valence	0.09239319474567256		7.802990915326518
id-1315_AU15-100_AU2-33_AU25-33_AU26-66	1	1	3	10	9	train	id-1315_AU15-100_AU2-33_AU25-33_AU26-66	arousal	0.4728357613455008		7.802990915326518
id-1323_AU26-33	1	1	3	10	10	train	id-1323_AU26-33	valence	0.0815234071285346		1.8271886410184384
id-1323_AU26-33	1	1	3	10	10	train	id-1323_AU26-33	arousal	0.1711991549699227		1.8271886410184384
id-1289_AU10Open-66_AU15-66_AU43-100_AU7-100	1	1	3	10	11	test_extra	id-1289_AU10Open-66_AU15-66_AU43-100_AU7-100	valence	-0.10869787617137948		3.027260362130619
id-1289_AU10Open-66_AU15-66_AU43-100_AU7-100	1	1	3	10	11	test_extra	id-1289_AU10Open-66_AU15-66_AU43-100_AU7-100	arousal	-0.15761192044850025		3.027260362130619
id-1377_AU17-66_AU2-33_AU20-66_AU5-66	1	1	3	10	12	test_extra	id-1377_AU17-66_AU2-33_AU20-66_AU5-66	valence	-0.1440246859270778		1.6189275520155206
id-1377_AU17-66_AU2-33_AU20-66_AU5-66	1	1	3	10	12	test_extra	id-1377_AU17-66_AU2-33_AU20-66_AU5-66	arousal	-0.3206587347055695		1.6189275520155206
id-1296_AU1-66_AU17-100_AU27i-33_AU4-66_AU5-100	1	1	3	10	13	test	id-1296_AU1-66_AU17-100_AU27i-33_AU4-66_AU5-100	valence	-0.30707150018414703		2.3189449389519723
id-1296_AU1-66_AU17-100_AU27i-33_AU4-66_AU5-100	1	1	3	10	13	test	id-1296_AU1-66_AU17-100_AU27i-33_AU4-66_AU5-100	arousal	0.3478332037484143		2.3189449389519723
id-1280_AU1-66_AU17-100_AU26-33	1	1	3	10	14	train	id-1280_AU1-66_AU17-100_AU26-33	valence	-0.05163149118140525		1.8938195477458064
id-1280_AU1-66_AU17-100_AU26-33	1	1	3	10	14	train	id-1280_AU1-66_AU17-100_AU26-33	arousal	0.4103344825469576		1.8938195477458064
id-1318_AU1-33_AU16Open-33_AU20-100_AU43-66	1	1	3	10	15	test_extra	id-1318_AU1-33_AU16Open-33_AU20-100_AU43-66	valence	-0.1250025575970864		12.353625840369206
id-1318_AU1-33_AU16Open-33_AU20-100_AU43-66	1	1	3	10	15	test_extra	id-1318_AU1-33_AU16Open-33_AU20-100_AU43-66	arousal	0.19293873020419855		12.353625840369206
id-1373_AU11-33_AU13-100_AU16Open-66_AU43-33	1	1	3	10	16	test	id-1373_AU11-33_AU13-100_AU16Open-66_AU43-33	valence	-0.0054348938085689745		3.069001084268166
id-1373_AU11-33_AU13-100_AU16Open-66_AU43-33	1	1	3	10	16	test	id-1373_AU11-33_AU13-100_AU16Open-66_AU43-33	arousal	-0.44566129230265583		3.069001084268166
id-1309_AU12-100_AU16Open-33_AU26-100_AU27i-66_AU7-33	1	1	3	10	17	test_extra	id-1309_AU12-100_AU16Open-33_AU26-100_AU27i-66_AU7-33	valence	-0.0625012787985432		3.002368366400333
id-1309_AU12-100_AU16Open-33_AU26-100_AU27i-66_AU7-33	1	1	3	10	17	test_extra	id-1309_AU12-100_AU16Open-33_AU26-100_AU27i-66_AU7-33	arousal	0.2771795842370177		3.002368366400333
id-1373_AU1-33_AU15-100_AU4-66_AU7-66_AU9-66	1	1	3	10	18	test_extra	id-1373_AU1-33_AU15-100_AU4-66_AU7-66_AU9-66	valence	-0.0407617035642673		2.6189049127751787
id-1373_AU1-33_AU15-100_AU4-66_AU7-66_AU9-66	1	1	3	10	18	test_extra	id-1373_AU1-33_AU15-100_AU4-66_AU7-66_AU9-66	arousal	0.2092434116299055		2.6189049127751787
id-1315_AU27i-66	1	1	3	10	19	test_extra	id-1315_AU27i-66	valence	-0.13587234521422434		4.194271245871278
id-1315_AU27i-66	1	1	3	10	19	test_extra	id-1315_AU27i-66	arousal	0.29620171256700906		4.194271245871278
id-1260_AU12-100_AU4-66_AU43-66	1	1	3	10	20	test_extra	id-1260_AU12-100_AU4-66_AU43-66	valence	-0.19293873020419855		2.8106921811904613
id-1260_AU12-100_AU4-66_AU43-66	1	1	3	10	20	test_extra	id-1260_AU12-100_AU4-66_AU43-66	arousal	-0.11141532307566396		2.8106921811904613
id-1376_AU16Open-100_AU43-66_AU5-33	1	1	3	10	21	train	id-1376_AU16Open-100_AU43-66_AU5-33	valence	-0.07608851331996565		17.170755112243572
id-1376_AU16Open-100_AU43-66_AU5-33	1	1	3	10	21	train	id-1376_AU16Open-100_AU43-66_AU5-33	arousal	-0.1630468142570692		17.170755112243572
id-1279_AU22-33_AU26-33_AU4-33	1	1	3	10	22	test	id-1279_AU22-33_AU26-33_AU4-33	valence	0.1032629823628105		1.8269716061677173
id-1279_AU22-33_AU26-33_AU4-33	1	1	3	10	22	test	id-1279_AU22-33_AU26-33_AU4-33	arousal	0.11413276997994845		1.8269716061677173
id-1294_AU13-33	1	1	3	10	23	test_extra	id-1294_AU13-33	valence	0.07608851331996565		1.6936681365077677
id-1294_AU13-33	1	1	3	10	23	test_extra	id-1294_AU13-33	arousal	-0.21467830543847446		1.6936681365077677
id-1355_AU11-100_AU15-100_AU2-66_AU25-33	1	1	3	10	24	test_extra	id-1355_AU11-100_AU15-100_AU2-66_AU25-33	valence	-0.1521770266399313		4.002587816103187
id-1355_AU11-100_AU15-100_AU2-66_AU25-33	1	1	3	10	24	test_extra	id-1355_AU11-100_AU15-100_AU2-66_AU25-33	arousal	0.09511064164995704		4.002587816103187
id-1289_AU10Open-33_AU2-66_AU24-66	1	1	3	10	25	test_extra	id-1289_AU10Open-33_AU2-66_AU24-66	valence	-0.42120427016409545		1.6854672980698524
id-1289_AU10Open-33_AU2-66_AU24-66	1	1	3	10	25	test_extra	id-1289_AU10Open-33_AU2-66_AU24-66	arousal	0.23370043376846586		1.6854672980698524
id-1266_AU13-66_AU17-100_AU2-100_AU9-33	1	1	3	10	26	test	id-1266_AU13-66_AU17-100_AU2-100_AU9-33	valence	-0.4565310799197938		3.669058074783607
id-1266_AU13-66_AU17-100_AU2-100_AU9-33	1	1	3	10	26	test	id-1266_AU13-66_AU17-100_AU2-100_AU9-33	arousal	0.11685021688423293		3.669058074783607
id-1360_AU11-100_AU16Open-66_AU22-100_AU25-66_AU26-33	1	1	3	10	27	train	id-1360_AU11-100_AU16Open-66_AU22-100_AU25-66_AU26-33	valence	-0.1657642611613537		5.110921109189803
id-1360_AU11-100_AU16Open-66_AU22-100_AU25-66_AU26-33	1	1	3	10	27	train	id-1360_AU11-100_AU16Open-66_AU22-100_AU25-66_AU26-33	arousal	0.11685021688423293		5.110921109189803
id-1376_AU14-100_AU16Open-33_AU6-66_AU9-100	1	1	3	10	28	train	id-1376_AU14-100_AU16Open-33_AU6-66_AU9-100	valence	0.11413276997994845		5.8193624065443155
id-1376_AU14-100_AU16Open-33_AU6-66_AU9-100	1	1	3	10	28	train	id-1376_AU14-100_AU16Open-33_AU6-66_AU9-100	arousal	0.19022128329991408		5.8193624065443155
id-1378_AU14-66_AU16Open-66	1	1	3	10	29	test_extra	id-1378_AU14-66_AU16Open-66	valence	0.3587029913655523		2.17724200925295
id-1378_AU14-66_AU16Open-66	1	1	3	10	29	test_extra	id-1378_AU14-66_AU16Open-66	arousal	-0.0054348938085689745		2.17724200925295
id-1370_AU10Open-100_AU2-33_AU27i-66_AU5-66	1	1	3	10	30	test	id-1370_AU10Open-100_AU2-33_AU27i-66_AU5-66	valence	-0.010869787617137949		10.82002256679334
id-1370_AU10Open-100_AU2-33_AU27i-66_AU5-66	1	1	3	10	30	test	id-1370_AU10Open-100_AU2-33_AU27i-66_AU5-66	arousal	-0.1684817080656382		10.82002256679334
id-1366_AU15-66_AU22-66_AU24-33_AU5-100	1	1	3	10	31	test_extra	id-1366_AU15-66_AU22-66_AU24-33_AU5-100	valence	-0.3206587347055695		3.3358501125330804
id-1366_AU15-66_AU22-66_AU24-33_AU5-100	1	1	3	10	31	test_extra	id-1366_AU15-66_AU22-66_AU24-33_AU5-100	arousal	-0.07065361951139666		3.3358501125330804
id-1335_AU1-33_AU14-66_AU27i-66_AU7-100	1	1	3	10	32	train	id-1335_AU1-33_AU14-66_AU27i-66_AU7-100	valence	-0.100545535458526		1.5187178220930946
id-1335_AU1-33_AU14-66_AU27i-66_AU7-100	1	1	3	10	32	train	id-1335_AU1-33_AU14-66_AU27i-66_AU7-100	arousal	0.2255480930556124		1.5187178220930946
id-1377_AU13-66_AU5-100	1	1	3	10	33	test_extra	id-1377_AU13-66_AU5-100	valence	-0.1250025575970864		1.4520292607649026
id-1377_AU13-66_AU5-100	1	1	3	10	33	test_extra	id-1377_AU13-66_AU5-100	arousal	-0.11956766378851742		1.4520292607649026
id-1309_AU27i-33_AU4-100_AU43-66	1	1	3	10	34	test_extra	id-1309_AU27i-33_AU4-100_AU43-66	valence	-0.13043745140565535		11.778395342716975
id-1309_AU27i-33_AU4-100_AU43-66	1	1	3	10	34	test_extra	id-1309_AU27i-33_AU4-100_AU43-66	arousal	-0.1684817080656382		11.778395342716975
id-1315_AU2-100_AU24-100	1	1	3	10	35	test_extra	id-1315_AU2-100_AU24-100	valence	0.0		1.2855227793006634
id-1315_AU2-100_AU24-100	1	1	3	10	35	test_extra	id-1315_AU2-100_AU24-100	arousal	-0.26902724352416424		1.2855227793006634
id-1291_AU15-66_AU20-66_AU7-100	1	1	3	10	36	test_extra	id-1291_AU15-66_AU20-66_AU7-100	valence	-0.05978383189425871		26.647130612116605
id-1291_AU15-66_AU20-66_AU7-100	1	1	3	10	36	test_extra	id-1291_AU15-66_AU20-66_AU7-100	arousal	-0.09782808855424154		26.647130612116605
id-1339_AU11-100_AU20-100_AU4-33	1	1	3	11	1	test_extra	id-1339_AU11-100_AU20-100_AU4-33	valence	-0.12228511069280193		11.620045930490965
id-1339_AU11-100_AU20-100_AU4-33	1	1	3	11	1	test_extra	id-1339_AU11-100_AU20-100_AU4-33	arousal	-0.15761192044850025		11.620045930490965
id-1302_AU14-100_AU17-33_AU26-66_AU9-33	1	1	3	11	2	test_extra	id-1302_AU14-100_AU17-33_AU26-66_AU9-33	valence	-0.31522384089700045		2.1438123031894065
id-1302_AU14-100_AU17-33_AU26-66_AU9-33	1	1	3	11	2	test_extra	id-1302_AU14-100_AU17-33_AU26-66_AU9-33	arousal	0.19022128329991408		2.1438123031894065
id-1264_AU1-100_AU4-100	1	1	3	11	3	train	id-1264_AU1-100_AU4-100	valence	-0.0842408540328191		5.760937167959128
id-1264_AU1-100_AU4-100	1	1	3	11	3	train	id-1264_AU1-100_AU4-100	arousal	0.14130723902279332		5.760937167959128
id-1373_AU22-66_AU4-100	1	1	3	11	4	test_extra	id-1373_AU22-66_AU4-100	valence	-0.02173957523427589		3.6856547509796656
id-1373_AU22-66_AU4-100	1	1	3	11	4	test_extra	id-1373_AU22-66_AU4-100	arousal	-0.3043540532798626		3.6856547509796656
id-1291_AU13-66_AU7-33_AU9-66	1	1	3	11	5	test_extra	id-1291_AU13-66_AU7-33_AU9-66	valence	-0.11956766378851742		13.9370432910564
id-1291_AU13-66_AU7-33_AU9-66	1	1	3	11	5	test_extra	id-1291_AU13-66_AU7-33_AU9-66	arousal	-0.11685021688423293		13.9370432910564
id-1310_AU16Open-100_AU27i-66_AU6-33_AU7-66	1	1	3	11	6	test_extra	id-1310_AU16Open-100_AU27i-66_AU6-33_AU7-66	valence	-0.3885949073126817		2.477244846706526
id-1310_AU16Open-100_AU27i-66_AU6-33_AU7-66	1	1	3	11	6	test_extra	id-1310_AU16Open-100_AU27i-66_AU6-33_AU7-66	arousal	0.17391660187420716		2.477244846706526
id-1270_AU11-33_AU17-66	1	1	3	11	7	test_extra	id-1270_AU11-33_AU17-66	valence	-0.17391660187420716		15.903953777311473
id-1270_AU11-33_AU17-66	1	1	3	11	7	test_extra	id-1270_AU11-33_AU17-66	arousal	-0.0842408540328191		15.903953777311473
id-1323_AU12-33_AU20-100_AU25-33_AU4-33	1	1	3	11	8	test_extra	id-1323_AU12-33_AU20-100_AU25-33_AU4-33	valence	-0.2255480930556124		6.419455619845394
id-1323_AU12-33_AU20-100_AU25-33_AU4-33	1	1	3	11	8	test_extra	id-1323_AU12-33_AU20-100_AU25-33_AU4-33	arousal	-0.15761192044850025		6.419455619845394
id-1295_AU24-100_AU25-100	1	1	3	11	9	test_extra	id-1295_AU24-100_AU25-100	valence	-0.3858774604083972		3.360743013832689
id-1295_AU24-100_AU25-100	1	1	3	11	9	test_extra	id-1295_AU24-100_AU25-100	arousal	0.04891404427712077		3.360743013832689
id-1309_AU16Open-100_AU2-33_AU5-33_AU7-33	1	1	3	11	10	train	id-1309_AU16Open-100_AU2-33_AU5-33_AU7-33	valence	-0.100545535458526		2.552282458029368
id-1309_AU16Open-100_AU2-33_AU5-33_AU7-33	1	1	3	11	10	train	id-1309_AU16Open-100_AU2-33_AU5-33_AU7-33	arousal	-0.1521770266399313		2.552282458029368
id-1295_AU24-100_AU27i-33	1	1	3	11	11	test_extra	id-1295_AU24-100_AU27i-33	valence	0.08695830093710358		1.5106232371581427
id-1295_AU24-100_AU27i-33	1	1	3	11	11	test_extra	id-1295_AU24-100_AU27i-33	arousal	0.4429438453983714		1.5106232371581427
id-1380_AU17-33_AU27i-100_AU6-100	1	1	3	11	12	train	id-1380_AU17-33_AU27i-100_AU6-100	valence	0.07608851331996565		1.4188811868516495
id-1380_AU17-33_AU27i-100_AU6-100	1	1	3	11	12	train	id-1380_AU17-33_AU27i-100_AU6-100	arousal	0.5000102303883456		1.4188811868516495
id-1347_AU13-100_AU14-66_AU17-100_AU27i-66_AU7-100	1	1	3	11	13	test	id-1347_AU13-100_AU14-66_AU17-100_AU27i-66_AU7-100	valence	0.0		2.5605638921624627
id-1347_AU13-100_AU14-66_AU17-100_AU27i-66_AU7-100	1	1	3	11	13	test	id-1347_AU13-100_AU14-66_AU17-100_AU27i-66_AU7-100	arousal	0.1684817080656382		2.5605638921624627
id-1291_AU10Open-33_AU11-100_AU15-100	1	1	3	11	14	test_extra	id-1291_AU10Open-33_AU11-100_AU15-100	valence	-0.2472876682898883		3.410699969088455
id-1291_AU10Open-33_AU11-100_AU15-100	1	1	3	11	14	test_extra	id-1291_AU10Open-33_AU11-100_AU15-100	arousal	0.1032629823628105		3.410699969088455
id-1294_AU10Open-66_AU27i-66_AU43-33_AU7-66	1	1	3	11	15	test_extra	id-1294_AU10Open-66_AU27i-66_AU43-33_AU7-66	valence	-0.03260936285141384		4.794384683556928
id-1294_AU10Open-66_AU27i-66_AU43-33_AU7-66	1	1	3	11	15	test_extra	id-1294_AU10Open-66_AU27i-66_AU43-33_AU7-66	arousal	-0.0027174469042844872		4.794384683556928
id-1378_AU26-66_AU4-33_AU43-66	1	1	3	11	16	train	id-1378_AU26-66_AU4-33_AU43-66	valence	-0.1875038363956296		3.4106552943230786
id-1378_AU26-66_AU4-33_AU43-66	1	1	3	11	16	train	id-1378_AU26-66_AU4-33_AU43-66	arousal	0.09239319474567256		3.4106552943230786
id-1269_AU15-66_AU16Open-66_AU26-33_AU27i-100	1	1	3	11	17	test	id-1269_AU15-66_AU16Open-66_AU26-33_AU27i-100	valence	0.029891915947129363		3.7188659129096777
id-1269_AU15-66_AU16Open-66_AU26-33_AU27i-100	1	1	3	11	17	test	id-1269_AU15-66_AU16Open-66_AU26-33_AU27i-100	arousal	0.32337618160985393		3.7188659129096777
id-1285_AU26-100_AU4-66_AU7-100_AU9-33	1	1	3	11	18	test_extra	id-1285_AU26-100_AU4-66_AU7-100_AU9-33	valence	-0.15761192044850025		8.186417542452546
id-1285_AU26-100_AU4-66_AU7-100_AU9-33	1	1	3	11	18	test_extra	id-1285_AU26-100_AU4-66_AU7-100_AU9-33	arousal	0.2554400090027418		8.186417542452546
id-1377_AU24-100	1	1	3	11	19	test_extra	id-1377_AU24-100	valence	-0.04619659737283628		1.7604590272003406
id-1377_AU24-100	1	1	3	11	19	test_extra	id-1377_AU24-100	arousal	-0.2201131992470434		1.7604590272003406
id-1323_AU14-66_AU24-100_AU25-66_AU5-100_AU6-66	1	1	3	11	20	test_extra	id-1323_AU14-66_AU24-100_AU25-66_AU5-100_AU6-66	valence	-0.3695727789826902		2.3772548683409696
id-1323_AU14-66_AU24-100_AU25-66_AU5-100_AU6-66	1	1	3	11	20	test_extra	id-1323_AU14-66_AU24-100_AU25-66_AU5-100_AU6-66	arousal	-0.05978383189425871		2.3772548683409696
id-1306_AU24-66_AU43-100_AU7-100	1	1	3	11	21	test	id-1306_AU24-66_AU43-100_AU7-100	valence	-0.057066384989974225		5.0442349627137455
id-1306_AU24-66_AU43-100_AU7-100	1	1	3	11	21	test	id-1306_AU24-66_AU43-100_AU7-100	arousal	-0.23370043376846586		5.0442349627137455
id-1273_AU1-33_AU13-33_AU26-33	1	1	3	11	22	test	id-1273_AU1-33_AU13-33_AU26-33	valence	-0.05163149118140525		9.811342983886787
id-1273_AU1-33_AU13-33_AU26-33	1	1	3	11	22	test	id-1273_AU1-33_AU13-33_AU26-33	arousal	-0.1875038363956296		9.811342983886787
id-1264_AU22-100_AU26-33	1	1	3	11	23	test_extra	id-1264_AU22-100_AU26-33	valence	0.07337106641568114		1.4770570919372403
id-1264_AU22-100_AU26-33	1	1	3	11	23	test_extra	id-1264_AU22-100_AU26-33	arousal	0.38044256659982817		1.4770570919372403
id-1361_AU15-66_AU24-66_AU7-66	1	1	3	11	24	test_extra	id-1361_AU15-66_AU24-66_AU7-66	valence	-0.2663097966198797		4.260858987114261
id-1361_AU15-66_AU24-66_AU7-66	1	1	3	11	24	test_extra	id-1361_AU15-66_AU24-66_AU7-66	arousal	-0.2500051151941728		4.260858987114261
id-1323_AU26-100	1	1	3	11	25	train	id-1323_AU26-100	valence	0.04619659737283628		2.935625470896412
id-1323_AU26-100	1	1	3	11	25	train	id-1323_AU26-100	arousal	0.3423983099398454		2.935625470896412
id-1302_AU15-66_AU24-100_AU25-100_AU43-33	1	1	3	11	26	test	id-1302_AU15-66_AU24-100_AU25-100_AU43-33	valence	-0.07337106641568114		3.4607776669636223
id-1302_AU15-66_AU24-100_AU25-100_AU43-33	1	1	3	11	26	test	id-1302_AU15-66_AU24-100_AU25-100_AU43-33	arousal	-0.23370043376846586		3.4607776669636223
id-1318_AU2-66_AU22-100_AU5-33_AU7-66	1	1	3	11	27	test_extra	id-1318_AU2-66_AU22-100_AU5-33_AU7-66	valence	-0.3478332037484143		4.969313566156416
id-1318_AU2-66_AU22-100_AU5-33_AU7-66	1	1	3	11	27	test_extra	id-1318_AU2-66_AU22-100_AU5-33_AU7-66	arousal	0.07337106641568114		4.969313566156416
id-1293_AU6-33_AU7-66	1	1	3	11	28	test_extra	id-1293_AU6-33_AU7-66	valence	-0.201091070917052		12.653594568031625
id-1293_AU6-33_AU7-66	1	1	3	11	28	test_extra	id-1293_AU6-33_AU7-66	arousal	-0.09782808855424154		12.653594568031625
id-1373_AU1-33_AU26-100_AU27i-66_AU7-66	1	1	3	11	29	train	id-1373_AU1-33_AU26-100_AU27i-66_AU7-66	valence	-0.11413276997994845		2.3355914214789664
id-1373_AU1-33_AU26-100_AU27i-66_AU7-66	1	1	3	11	29	train	id-1373_AU1-33_AU26-100_AU27i-66_AU7-66	arousal	0.4619659737283627		2.3355914214789664
id-1289_AU4-66_AU43-66_AU6-33	1	1	3	11	30	test_extra	id-1289_AU4-66_AU43-66_AU6-33	valence	0.01630468142570692		5.7195191304599575
id-1289_AU4-66_AU43-66_AU6-33	1	1	3	11	30	test_extra	id-1289_AU4-66_AU43-66_AU6-33	arousal	-0.5788161906125957		5.7195191304599575
id-1367_AU14-66_AU2-100_AU20-66_AU9-33	1	1	3	11	31	test_extra	id-1367_AU14-66_AU2-100_AU20-66_AU9-33	valence	-0.3641378851741212		5.0275945173179934
id-1367_AU14-66_AU2-100_AU20-66_AU9-33	1	1	3	11	31	test_extra	id-1367_AU14-66_AU2-100_AU20-66_AU9-33	arousal	0.06793617260711217		5.0275945173179934
id-1289_AU17-33_AU26-66	1	1	3	11	32	test	id-1289_AU17-33_AU26-66	valence	-0.06793617260711217		5.4527642814373385
id-1289_AU17-33_AU26-66	1	1	3	11	32	test	id-1289_AU17-33_AU26-66	arousal	-0.21467830543847446		5.4527642814373385
id-1310_AU20-33_AU24-33	1	1	3	11	33	test_extra	id-1310_AU20-33_AU24-33	valence	-0.2717446904284487		3.3688937440820155
id-1310_AU20-33_AU24-33	1	1	3	11	33	test_extra	id-1310_AU20-33_AU24-33	arousal	-0.17663404877849165		3.3688937440820155
id-1309_AU15-33	1	1	3	11	34	test	id-1309_AU15-33	valence	-0.04347915046855179		4.110859228598201
id-1309_AU15-33	1	1	3	11	34	test	id-1309_AU15-33	arousal	-0.42120427016409545		4.110859228598201
id-1361_AU12-33_AU13-100_AU4-100	1	1	3	11	35	train	id-1361_AU12-33_AU13-100_AU4-100	valence	0.29891915947129355		9.628173115932439
id-1361_AU12-33_AU13-100_AU4-100	1	1	3	11	35	train	id-1361_AU12-33_AU13-100_AU4-100	arousal	0.12228511069280193		9.628173115932439
id-1361_AU16Open-33_AU24-66_AU25-100	1	1	3	11	36	train	id-1361_AU16Open-33_AU24-66_AU25-100	valence	-0.19022128329991408		1.1188517860246066
id-1361_AU16Open-33_AU24-66_AU25-100	1	1	3	11	36	train	id-1361_AU16Open-33_AU24-66_AU25-100	arousal	-0.100545535458526		1.1188517860246066
id-1363_AU1-33_AU15-100_AU2-66_AU22-66_AU5-100	1	1	3	12	1	test	id-1363_AU1-33_AU15-100_AU2-66_AU22-66_AU5-100	valence	-0.21196085853419		10.486592438130174
id-1363_AU1-33_AU15-100_AU2-66_AU22-66_AU5-100	1	1	3	12	1	test	id-1363_AU1-33_AU15-100_AU2-66_AU22-66_AU5-100	arousal	-0.1277200045013709		10.486592438130174
id-1302_AU2-33_AU43-66	1	1	3	12	2	test_extra	id-1302_AU2-33_AU43-66	valence	-0.04619659737283628		2.6357744672823173
id-1302_AU2-33_AU43-66	1	1	3	12	2	test_extra	id-1302_AU2-33_AU43-66	arousal	-0.3885949073126817		2.6357744672823173
id-1297_AU2-66_AU22-66	1	1	3	12	3	train	id-1297_AU2-66_AU22-66	valence	-0.057066384989974225		2.610506962018917
id-1297_AU2-66_AU22-66	1	1	3	12	3	train	id-1297_AU2-66_AU22-66	arousal	0.2554400090027418		2.610506962018917
id-1380_AU13-100_AU14-66_AU2-100	1	1	3	12	4	test_extra	id-1380_AU13-100_AU14-66_AU2-100	valence	0.5190323587183371		9.919849542626253
id-1380_AU13-100_AU14-66_AU2-100	1	1	3	12	4	test_extra	id-1380_AU13-100_AU14-66_AU2-100	arousal	0.1032629823628105		9.919849542626253
id-1310_AU15-66_AU25-100_AU4-100_AU43-33	1	1	3	12	5	test_extra	id-1310_AU15-66_AU25-100_AU4-100_AU43-33	valence	-0.4429438453983714		1.8772639240378344
id-1310_AU15-66_AU25-100_AU4-100_AU43-33	1	1	3	12	5	test_extra	id-1310_AU15-66_AU25-100_AU4-100_AU43-33	arousal	0.21196085853419		1.8772639240378344
id-1358_AU15-33_AU22-100	1	1	3	12	6	test_extra	id-1358_AU15-33_AU22-100	valence	-0.19565617710848307		2.1021533841740165
id-1358_AU15-33_AU22-100	1	1	3	12	6	test_extra	id-1358_AU15-33_AU22-100	arousal	-0.1657642611613537		2.1021533841740165
id-1270_AU16Open-66_AU20-66_AU6-66	1	1	3	12	7	test_extra	id-1270_AU16Open-66_AU20-66_AU6-66	valence	-0.24457022138560386		1.843892778142617
id-1270_AU16Open-66_AU20-66_AU6-66	1	1	3	12	7	test_extra	id-1270_AU16Open-66_AU20-66_AU6-66	arousal	-0.03260936285141384		1.843892778142617
id-1323_AU22-33_AU5-100_AU9-66	1	1	3	12	8	train	id-1323_AU22-33_AU5-100_AU9-66	valence	-0.402182141834104		1.4854580612591235
id-1323_AU22-33_AU5-100_AU9-66	1	1	3	12	8	train	id-1323_AU22-33_AU5-100_AU9-66	arousal	0.11141532307566396		1.4854580612591235
id-1291_AU1-100_AU14-100_AU24-66	1	1	3	12	9	train	id-1291_AU1-100_AU14-100_AU24-66	valence	0.21196085853419		1.9441740480651788
id-1291_AU1-100_AU14-100_AU24-66	1	1	3	12	9	train	id-1291_AU1-100_AU14-100_AU24-66	arousal	-0.14674213283136228		1.9441740480651788
id-1293_AU14-33_AU15-33_AU43-66	1	1	3	12	10	train	id-1293_AU14-33_AU15-33_AU43-66	valence	-0.15489447354421576		4.452540303886053
id-1293_AU14-33_AU15-33_AU43-66	1	1	3	12	10	train	id-1293_AU14-33_AU15-33_AU43-66	arousal	-0.3478332037484143		4.452540303886053
id-1295_AU11-33_AU12-100_AU13-100_AU20-33_AU9-66	1	1	3	12	11	test	id-1295_AU11-33_AU12-100_AU13-100_AU20-33_AU9-66	valence	-0.6277302348897165		2.05205183963335
id-1295_AU11-33_AU12-100_AU13-100_AU20-33_AU9-66	1	1	3	12	11	test	id-1295_AU11-33_AU12-100_AU13-100_AU20-33_AU9-66	arousal	0.2554400090027418		2.05205183963335
id-1274_AU10Open-66_AU2-33_AU43-100_AU9-66	1	1	3	12	12	test	id-1274_AU10Open-66_AU2-33_AU43-100_AU9-66	valence	-0.5706638498997423		2.1604470133115683
id-1274_AU10Open-66_AU2-33_AU43-100_AU9-66	1	1	3	12	12	test	id-1274_AU10Open-66_AU2-33_AU43-100_AU9-66	arousal	0.2554400090027418		2.1604470133115683
id-1273_AU11-33_AU14-33_AU26-100	1	1	3	12	13	test_extra	id-1273_AU11-33_AU14-33_AU26-100	valence	0.6032732127511561		3.118995167878893
id-1273_AU11-33_AU14-33_AU26-100	1	1	3	12	13	test_extra	id-1273_AU11-33_AU14-33_AU26-100	arousal	0.1820689425870606		3.118995167878893
id-1335_AU11-100_AU16Open-100_AU5-33	1	1	3	12	14	train	id-1335_AU11-100_AU16Open-100_AU5-33	valence	0.14130723902279332		1.2437316471223312
id-1335_AU11-100_AU16Open-100_AU5-33	1	1	3	12	14	train	id-1335_AU11-100_AU16Open-100_AU5-33	arousal	-0.21196085853419		1.2437316471223312
id-1344_AU13-66_AU14-66_AU24-33_AU9-33	1	1	3	12	15	test	id-1344_AU13-66_AU14-66_AU24-33_AU9-33	valence	-0.30707150018414703		8.002977814750919
id-1344_AU13-66_AU14-66_AU24-33_AU9-33	1	1	3	12	15	test	id-1344_AU13-66_AU14-66_AU24-33_AU9-33	arousal	-0.1820689425870606		8.002977814750919
id-1290_AU24-100_AU9-33	1	1	3	12	16	test_extra	id-1290_AU24-100_AU9-33	valence	-0.5054451241969146		3.8940918223433982
id-1290_AU24-100_AU9-33	1	1	3	12	16	test_extra	id-1290_AU24-100_AU9-33	arousal	0.0815234071285346		3.8940918223433982
id-1270_AU12-33_AU15-33_AU17-100_AU24-66	1	1	3	12	17	train	id-1270_AU12-33_AU15-33_AU17-100_AU24-66	valence	-0.14674213283136228		2.152201801962292
id-1270_AU12-33_AU15-33_AU17-100_AU24-66	1	1	3	12	17	train	id-1270_AU12-33_AU15-33_AU17-100_AU24-66	arousal	-0.17391660187420716		2.152201801962292
id-1273_AU22-100_AU26-33	1	1	3	12	18	train	id-1273_AU22-100_AU26-33	valence	-0.0407617035642673		0.8351645963339251
id-1273_AU22-100_AU26-33	1	1	3	12	18	train	id-1273_AU22-100_AU26-33	arousal	0.2744621373327332		0.8351645963339251
id-1273_AU17-33_AU20-33_AU7-33_AU9-66	1	1	3	12	19	test_extra	id-1273_AU17-33_AU20-33_AU7-33_AU9-66	valence	-0.2282655399598969		2.9273977672273768
id-1273_AU17-33_AU20-33_AU7-33_AU9-66	1	1	3	12	19	test_extra	id-1273_AU17-33_AU20-33_AU7-33_AU9-66	arousal	-0.2907668187584401		2.9273977672273768
id-1290_AU10Open-33_AU2-66_AU9-33	1	1	3	12	20	test_extra	id-1290_AU10Open-33_AU2-66_AU9-33	valence	-0.28533192494987114		5.177530282247972
id-1290_AU10Open-33_AU2-66_AU9-33	1	1	3	12	20	test_extra	id-1290_AU10Open-33_AU2-66_AU9-33	arousal	-0.1657642611613537		5.177530282247972
id-1355_AU26-33_AU7-100	1	1	3	12	21	test_extra	id-1355_AU26-33_AU7-100	valence	-0.2418527744813193		3.294182741534314
id-1355_AU26-33_AU7-100	1	1	3	12	21	test_extra	id-1355_AU26-33_AU7-100	arousal	0.2880493718541556		3.294182741534314
id-1311_AU15-66_AU16Open-100_AU17-66_AU20-100	1	1	3	12	22	test_extra	id-1311_AU15-66_AU16Open-100_AU17-66_AU20-100	valence	-0.2744621373327332		2.3858417812916737
id-1311_AU15-66_AU16Open-100_AU17-66_AU20-100	1	1	3	12	22	test_extra	id-1311_AU15-66_AU16Open-100_AU17-66_AU20-100	arousal	0.29891915947129355		2.3858417812916737
id-1273_AU16Open-33_AU17-100_AU22-100	1	1	3	12	23	train	id-1273_AU16Open-33_AU17-100_AU22-100	valence	0.13587234521422434		3.343954960590054
id-1273_AU16Open-33_AU17-100_AU22-100	1	1	3	12	23	train	id-1273_AU16Open-33_AU17-100_AU22-100	arousal	-0.20652596472562101		3.343954960590054
id-1306_AU17-100_AU5-66	1	1	3	12	24	train	id-1306_AU17-100_AU5-66	valence	-0.04891404427712077		2.3526103949734534
id-1306_AU17-100_AU5-66	1	1	3	12	24	train	id-1306_AU17-100_AU5-66	arousal	-0.21196085853419		2.3526103949734534
id-1315_AU12-66_AU17-33_AU2-100_AU4-100	1	1	3	12	25	test	id-1315_AU12-66_AU17-33_AU2-100_AU4-100	valence	-0.24457022138560386		3.785766075672655
id-1315_AU12-66_AU17-33_AU2-100_AU4-100	1	1	3	12	25	test	id-1315_AU12-66_AU17-33_AU2-100_AU4-100	arousal	0.09782808855424154		3.785766075672655
id-1318_AU15-33_AU2-33_AU7-33	1	1	3	12	26	test_extra	id-1318_AU15-33_AU2-33_AU7-33	valence	-0.07337106641568114		2.118902799780699
id-1318_AU15-33_AU2-33_AU7-33	1	1	3	12	26	test_extra	id-1318_AU15-33_AU2-33_AU7-33	arousal	-0.29348426566272456		2.118902799780699
id-1279_AU1-100_AU13-66_AU22-100_AU27i-100	1	1	3	12	27	train	id-1279_AU1-100_AU13-66_AU22-100_AU27i-100	valence	0.13858979211850886		1.7604668754702288
id-1279_AU1-100_AU13-66_AU22-100_AU27i-100	1	1	3	12	27	train	id-1279_AU1-100_AU13-66_AU22-100_AU27i-100	arousal	0.3179412878012849		1.7604668754702288
id-1347_AU4-33_AU43-66_AU9-66	1	1	3	12	28	test_extra	id-1347_AU4-33_AU43-66_AU9-66	valence	-0.05434893808568974		3.6524617004433817
id-1347_AU4-33_AU43-66_AU9-66	1	1	3	12	28	test_extra	id-1347_AU4-33_AU43-66_AU9-66	arousal	-0.201091070917052		3.6524617004433817
id-1269_AU17-33_AU24-33_AU6-66	1	1	3	12	29	test_extra	id-1269_AU17-33_AU24-33_AU6-66	valence	-0.20652596472562101		3.735640986322323
id-1269_AU17-33_AU24-33_AU6-66	1	1	3	12	29	test_extra	id-1269_AU17-33_AU24-33_AU6-66	arousal	-0.1875038363956296		3.735640986322323
id-1295_AU10Open-66_AU20-66_AU27i-66	1	1	3	12	30	test_extra	id-1295_AU10Open-66_AU20-66_AU27i-66	valence	-0.4918578896754921		1.6854811834709835
id-1295_AU10Open-66_AU20-66_AU27i-66	1	1	3	12	30	test_extra	id-1295_AU10Open-66_AU20-66_AU27i-66	arousal	0.1847863894913451		1.6854811834709835
id-1295_AU15-66_AU17-33_AU20-33_AU25-66	1	1	3	12	31	test_extra	id-1295_AU15-66_AU17-33_AU20-33_AU25-66	valence	-0.3451157568441299		1.7688720707847096
id-1295_AU15-66_AU17-33_AU20-33_AU25-66	1	1	3	12	31	test_extra	id-1295_AU15-66_AU17-33_AU20-33_AU25-66	arousal	0.06793617260711217		1.7688720707847096
id-1260_AU22-100_AU25-100_AU26-100	1	1	3	12	32	test	id-1260_AU22-100_AU25-100_AU26-100	valence	0.0407617035642673		0.9187372012838748
id-1260_AU22-100_AU25-100_AU26-100	1	1	3	12	32	test	id-1260_AU22-100_AU25-100_AU26-100	arousal	0.28261447804558665		0.9187372012838748
id-1279_AU1-100_AU10Open-33_AU25-100_AU5-100	1	1	3	12	33	test_extra	id-1279_AU1-100_AU10Open-33_AU25-100_AU5-100	valence	-0.2201131992470434		1.3936752603203786
id-1279_AU1-100_AU10Open-33_AU25-100_AU5-100	1	1	3	12	33	test_extra	id-1279_AU1-100_AU10Open-33_AU25-100_AU5-100	arousal	0.1847863894913451		1.3936752603203786
id-1294_AU13-100_AU2-66_AU6-33	1	1	3	12	34	test_extra	id-1294_AU13-100_AU2-66_AU6-33	valence	-0.1440246859270778		5.719357939067778
id-1294_AU13-100_AU2-66_AU6-33	1	1	3	12	34	test_extra	id-1294_AU13-100_AU2-66_AU6-33	arousal	-0.21739575234275896		5.719357939067778
id-1363_AU2-100_AU25-100_AU26-100_AU27i-66	1	1	3	12	35	test_extra	id-1363_AU2-100_AU25-100_AU26-100_AU27i-66	valence	-0.00815234071285346		2.018877806058299
id-1363_AU2-100_AU25-100_AU26-100_AU27i-66	1	1	3	12	35	test_extra	id-1363_AU2-100_AU25-100_AU26-100_AU27i-66	arousal	0.2907668187584401		2.018877806058299
id-1291_AU4-100_AU43-33_AU7-66	1	1	3	12	36	test	id-1291_AU4-100_AU43-33_AU7-66	valence	-0.00815234071285346		2.8022661577761028
id-1291_AU4-100_AU43-33_AU7-66	1	1	3	12	36	test	id-1291_AU4-100_AU43-33_AU7-66	arousal	-0.3695727789826902		2.8022661577761028
id-1311_AU20-33_AU22-100_AU24-66_AU5-66	1	1	4	13	1	train	id-1311_AU20-33_AU22-100_AU24-66_AU5-66	emotion	Verdrietig	0.2972245936519255	6.2204443207501745
id-1373_AU6-66_AU7-66	1	1	4	13	2	test_extra	id-1373_AU6-66_AU7-66	emotion	Bang	0.11308008772091645	7.187249760929262
id-1310_AU12-33_AU14-33_AU22-100_AU6-100	1	1	4	13	3	test	id-1310_AU12-33_AU14-33_AU22-100_AU6-100	emotion	Blij	0.21656614779738198	0.678003593300673
id-1356_AU20-33_AU27i-66_AU4-66_AU43-33	1	1	4	13	4	test_extra	id-1356_AU20-33_AU27i-66_AU4-66_AU43-33	emotion	Bang	0.3162273778394684	1.67830092199074
id-1360_AU12-100_AU43-66_AU7-33	1	1	4	13	5	train	id-1360_AU12-100_AU43-66_AU7-33	emotion	Walging	0.15522973851946872	2.9201215153680096
id-1366_AU14-33_AU2-100_AU26-100_AU27i-100	1	1	4	13	6	test	id-1366_AU14-33_AU2-100_AU26-100_AU27i-100	emotion	Bang	0.4757351376226238	3.6118357345021654
id-1355_AU13-66_AU14-100_AU15-100_AU7-33	1	1	4	13	7	test	id-1355_AU13-66_AU14-100_AU15-100_AU7-33	emotion	Verdrietig	0.3579767522766692	1.119702115893233
id-1363_AU16Open-66_AU20-100_AU5-33	1	1	4	13	8	test_extra	id-1363_AU16Open-66_AU20-100_AU5-33	emotion	Walging	0.13783596072664842	7.770635516682888
id-1362_AU5-33_AU6-66_AU7-33	1	1	4	13	9	test	id-1362_AU5-33_AU6-66_AU7-33	emotion	Walging	0.19380698710431324	3.411809291868849
id-1363_AU14-100_AU22-33	1	1	4	13	10	train	id-1363_AU14-100_AU22-33	emotion	Blij	0.12644973030731668	0.7029363396632107
id-1373_AU1-100_AU13-33_AU27i-33_AU6-33	1	1	4	13	11	train	id-1373_AU1-100_AU13-33_AU27i-33_AU6-33	emotion	Bang	0.21773148934930767	1.9634829052592977
id-1309_AU10Open-100_AU2-100_AU27i-33	1	1	4	13	12	train	id-1309_AU10Open-100_AU2-100_AU27i-33	emotion	Verrassing	0.5396895036873736	0.6779782373505441
id-1354_AU16Open-33_AU20-33_AU25-100_AU7-66	1	1	4	13	13	test_extra	id-1354_AU16Open-33_AU20-33_AU25-100_AU7-66	emotion	Bang	0.4430396134616661	2.336603848307277
id-1367_AU16Open-100	1	1	4	13	14	test_extra	id-1367_AU16Open-100	emotion	Boos	0.3200628099136321	4.086829335143194
id-1344_AU2-33_AU20-100_AU24-100	1	1	4	13	15	test	id-1344_AU2-33_AU20-100_AU24-100	emotion	Walging	0.2210250704918149	3.620106301797932
id-1362_AU11-100_AU17-33_AU43-66	1	1	4	13	16	train	id-1362_AU11-100_AU17-33_AU43-66	emotion	Verdrietig	0.32676928141387857	6.528681804571535
id-1302_AU17-66_AU27i-100_AU4-100_AU6-33_AU7-100	1	1	4	13	17	test_extra	id-1302_AU17-66_AU27i-100_AU4-100_AU6-33_AU7-100	emotion	Verdrietig	0.5848144109412009	1.3614840716327308
id-1294_AU11-66_AU20-33_AU25-33	1	1	4	13	18	test	id-1294_AU11-66_AU20-33_AU25-33	emotion	Geen van allen	0.0	2.561511721693023
id-1366_AU15-66_AU24-33_AU4-100_AU9-100	1	1	4	13	19	train	id-1366_AU15-66_AU24-33_AU4-100_AU9-100	emotion	Walging	0.4959678077895518	1.0114518333557498
id-1266_AU25-33_AU4-33	1	1	4	13	20	test_extra	id-1266_AU25-33_AU4-33	emotion	Verdrietig	0.07581884219506413	9.254011069682749
id-1345_AU26-66_AU27i-100_AU9-100	1	1	4	13	21	test_extra	id-1345_AU26-66_AU27i-100_AU9-100	emotion	Verrassing	0.2201296024153133	4.12023821310504
id-1373_AU12-66_AU15-66_AU16Open-33	1	1	4	13	22	train	id-1373_AU12-66_AU15-66_AU16Open-33	emotion	Bang	0.32790866991311	1.6614938517850533
id-1295_AU11-66_AU24-66_AU43-100_AU6-33	1	1	4	13	23	test_extra	id-1295_AU11-66_AU24-66_AU43-100_AU6-33	emotion	Verdrietig	0.27577675244547245	3.7200114584738913
id-1376_AU10Open-100_AU11-66_AU13-100_AU6-100	1	1	4	13	24	train	id-1376_AU10Open-100_AU11-66_AU13-100_AU6-100	emotion	Blij	0.32817279561235385	1.3364517126137798
id-1285_AU10Open-66_AU17-100_AU9-66	1	1	4	13	25	test_extra	id-1285_AU10Open-66_AU17-100_AU9-66	emotion	Walging	0.4689005049367492	3.111623227498057
id-1360_AU1-100_AU11-66	1	1	4	13	26	test	id-1360_AU1-100_AU11-66	emotion	Verrassing	0.2724703801511763	6.937154977977116
id-1347_AU1-100_AU11-66_AU25-33_AU5-33	1	1	4	13	27	test_extra	id-1347_AU1-100_AU11-66_AU25-33_AU5-33	emotion	Bang	0.3496438749657407	0.9532218959484452
id-1323_AU2-33_AU22-66	1	1	4	13	28	test_extra	id-1323_AU2-33_AU22-66	emotion	Verrassing	0.3432974799251323	1.3948742344909988
id-1264_AU15-66_AU24-33_AU4-100	1	1	4	13	29	train	id-1264_AU15-66_AU24-33_AU4-100	emotion	Verdrietig	0.44336922899061054	0.9948687407013496
id-1269_AU11-100_AU13-33_AU25-100	1	1	4	13	30	test_extra	id-1269_AU11-100_AU13-33_AU25-100	emotion	Blij	0.21061886579449549	1.3698566664406826
id-1342_AU11-33_AU4-100_AU43-100_AU5-33	1	1	4	13	31	test_extra	id-1342_AU11-33_AU4-100_AU43-100_AU5-33	emotion	Verdrietig	0.1410047844922616	2.553254134227245
id-1307_AU13-66_AU14-66_AU43-33	1	1	4	13	32	test_extra	id-1307_AU13-66_AU14-66_AU43-33	emotion	Blij	0.23240783373955706	0.8779642312074429
id-1363_AU2-66_AU24-100_AU26-33	1	1	4	13	33	train	id-1363_AU2-66_AU24-100_AU26-33	emotion	Verrassing	0.38980961443258216	0.8946662553371425
id-1342_AU12-100_AU20-100_AU6-66	1	1	4	13	34	train	id-1342_AU12-100_AU20-100_AU6-66	emotion	Boos	0.2508703741647483	1.0864674091535562
id-1274_AU2-33_AU20-100_AU25-66_AU6-66	1	1	4	13	35	train	id-1274_AU2-33_AU20-100_AU25-66_AU6-66	emotion	Boos	0.44701607235533203	0.9863992499467712
id-1356_AU2-33_AU24-100_AU7-100	1	1	4	13	36	test_extra	id-1356_AU2-33_AU24-100_AU7-100	emotion	Verdrietig	0.27429765132027195	1.0280925806073355
id-1360_AU24-66_AU26-33_AU5-100_AU7-33	1	1	4	14	1	test_extra	id-1360_AU24-66_AU26-33_AU5-100_AU7-33	emotion	Verrassing	0.4785063613427631	2.9116130851180064
id-1367_AU25-66_AU4-66_AU6-33	1	1	4	14	2	test	id-1367_AU25-66_AU4-66_AU6-33	emotion	Boos	0.042888744259220624	15.021477394566318
id-1270_AU12-100_AU13-100_AU14-66_AU2-100_AU25-66	1	1	4	14	3	test_extra	id-1270_AU12-100_AU13-100_AU14-66_AU2-100_AU25-66	emotion	Blij	0.6389091765258987	1.1614660809846102
id-1280_AU15-33_AU27i-66	1	1	4	14	4	test_extra	id-1280_AU15-33_AU27i-66	emotion	Verrassing	0.5139044545525114	3.920131778490032
id-1307_AU10Open-66_AU17-33_AU22-33_AU9-100	1	1	4	14	5	test	id-1307_AU10Open-66_AU17-33_AU22-33_AU9-100	emotion	Boos	0.5434503296090555	4.753557077448932
id-1293_AU13-100	1	1	4	14	6	train	id-1293_AU13-100	emotion	Walging	0.2621172166909018	6.428773629329952
id-1345_AU11-33_AU25-33_AU9-66	1	1	4	14	7	test_extra	id-1345_AU11-33_AU25-33_AU9-66	emotion	Verrassing	0.16227195928604365	2.5534427945640346
id-1270_AU22-66_AU26-100	1	1	4	14	8	train	id-1270_AU22-66_AU26-100	emotion	Verrassing	0.2959227447043998	1.7282180321853955
id-1273_AU12-100_AU16Open-33_AU20-100_AU22-66_AU5-66	1	1	4	14	9	test	id-1273_AU12-100_AU16Open-33_AU20-100_AU22-66_AU5-66	emotion	Blij	0.3959440213182308	1.2281818094015762
id-1269_AU1-66_AU16Open-33_AU20-66	1	1	4	14	10	test_extra	id-1269_AU1-66_AU16Open-33_AU20-66	emotion	Bang	0.31376500073365515	1.4950332525168049
id-1274_AU14-33_AU6-33	1	1	4	14	11	train	id-1274_AU14-33_AU6-33	emotion	Blij	0.16311118711072425	0.9530951162014388
id-1273_AU15-100_AU2-100	1	1	4	14	12	test_extra	id-1273_AU15-100_AU2-100	emotion	Walging	0.2201945610636984	5.053622097348125
id-1377_AU17-66_AU24-33_AU4-100	1	1	4	14	13	test	id-1377_AU17-66_AU24-33_AU4-100	emotion	Verdrietig	0.5643734112929545	0.8141614183878119
id-1335_AU11-66_AU14-100	1	1	4	14	14	test_extra	id-1335_AU11-66_AU14-100	emotion	Blij	0.3069911192871921	0.8447672565343964
id-1339_AU16Open-66_AU24-100_AU43-33_AU7-100	1	1	4	14	15	test_extra	id-1339_AU16Open-66_AU24-100_AU43-33_AU7-100	emotion	Bang	0.284382452773164	4.078483001854694
id-1363_AU25-33_AU27i-66	1	1	4	14	16	test_extra	id-1363_AU25-33_AU27i-66	emotion	Verrassing	0.3777581074438488	2.144900797868104
id-1315_AU15-33_AU20-100	1	1	4	14	17	test_extra	id-1315_AU15-33_AU20-100	emotion	Verdrietig	0.31981494222997303	1.3614907124774618
id-1309_AU20-100_AU25-66	1	1	4	14	18	test_extra	id-1309_AU20-100_AU25-66	emotion	Walging	0.26198827146833703	1.128039997198357
id-1280_AU11-33_AU17-66_AU2-66_AU26-66_AU9-66	1	1	4	14	19	test	id-1280_AU11-33_AU17-66_AU2-66_AU26-66_AU9-66	emotion	Boos	0.027321740422718	6.680338755480987
id-1380_AU11-66_AU13-33	1	1	4	14	20	train	id-1380_AU11-66_AU13-33	emotion	Walging	0.15038465687719058	1.0113093570707858
id-1279_AU17-66_AU20-33_AU24-100_AU27i-66	1	1	4	14	21	test_extra	id-1279_AU17-66_AU20-33_AU24-100_AU27i-66	emotion	Verrassing	0.2164349890220344	11.321177771766088
id-1311_AU25-33	1	1	4	14	22	test_extra	id-1311_AU25-33	emotion	Geen van allen	0.0	2.986701408341105
id-1311_AU27i-100_AU4-66	1	1	4	14	23	test_extra	id-1311_AU27i-100_AU4-66	emotion	Bang	0.3300278608920603	1.319865601393758
id-1355_AU2-66_AU4-100_AU6-33	1	1	4	14	24	test_extra	id-1355_AU2-66_AU4-100_AU6-33	emotion	Walging	0.3164874877664943	3.2201032228622366
id-1355_AU10Open-100_AU12-100_AU27i-66	1	1	4	14	25	test_extra	id-1355_AU10Open-100_AU12-100_AU27i-66	emotion	Verrassing	0.15477666014069189	2.269715156096936
id-1380_AU13-66_AU20-66_AU22-100_AU5-100	1	1	4	14	26	test_extra	id-1380_AU13-66_AU20-66_AU22-100_AU5-100	emotion	Verdrietig	0.3012158255817721	0.6863484173063625
id-1318_AU12-100_AU14-100_AU26-33_AU6-66	1	1	4	14	27	train	id-1318_AU12-100_AU14-100_AU26-33_AU6-66	emotion	Boos	0.06378999225058357	6.737081747580304
id-1291_AU20-33_AU24-100_AU25-33_AU27i-100	1	1	4	14	28	test	id-1291_AU20-33_AU24-100_AU25-33_AU27i-100	emotion	Walging	0.14833324370160436	10.320822486621182
id-1260_AU24-66_AU26-66_AU5-33_AU6-66	1	1	4	14	29	train	id-1260_AU24-66_AU26-66_AU5-33_AU6-66	emotion	Bang	0.2093245719886612	3.9285985525384617
id-1366_AU14-33_AU25-33	1	1	4	14	30	train	id-1366_AU14-33_AU25-33	emotion	Blij	0.15430728535615204	0.6780105360012385
id-1315_AU1-66_AU20-66	1	1	4	14	31	test_extra	id-1315_AU1-66_AU20-66	emotion	Bang	0.3409169263358616	3.5618184079357884
id-1362_AU13-100_AU20-33_AU43-33	1	1	4	14	32	test_extra	id-1362_AU13-100_AU20-33_AU43-33	emotion	Verdrietig	0.19967053082349104	1.1279853611649742
id-1347_AU10Open-100_AU25-100	1	1	4	14	33	test_extra	id-1347_AU10Open-100_AU25-100	emotion	Walging	0.4036095637898582	1.0967057792240666
id-1260_AU1-100_AU16Open-100_AU2-33	1	1	4	14	34	test_extra	id-1260_AU1-100_AU16Open-100_AU2-33	emotion	Bang	0.3400052174671653	2.6115915325626697
id-1293_AU2-66_AU22-33_AU26-66_AU9-66	1	1	4	14	35	train	id-1293_AU2-66_AU22-33_AU26-66_AU9-66	emotion	Walging	0.20643977189666465	3.812094606668325
id-1311_AU16Open-100_AU43-100_AU6-66_AU9-100	1	1	4	14	36	test	id-1311_AU16Open-100_AU43-100_AU6-66_AU9-100	emotion	Walging	0.3908562339545971	2.628283595424364
id-1260_AU11-66_AU14-66_AU43-33	1	1	4	15	1	test_extra	id-1260_AU11-66_AU14-66_AU43-33	valence	-0.08967574784138807		5.036013598031786
id-1260_AU11-66_AU14-66_AU43-33	1	1	4	15	1	test_extra	id-1260_AU11-66_AU14-66_AU43-33	arousal	-0.28261447804558665		5.036013598031786
id-1360_AU10Open-66_AU20-33	1	1	4	15	2	test_extra	id-1360_AU10Open-66_AU20-33	valence	-0.28261447804558665		3.068982972876256
id-1360_AU10Open-66_AU20-33	1	1	4	15	2	test_extra	id-1360_AU10Open-66_AU20-33	arousal	0.13858979211850886		3.068982972876256
id-1274_AU15-100_AU16Open-66_AU24-33	1	1	4	15	3	test_extra	id-1274_AU15-100_AU16Open-66_AU24-33	valence	-0.5353370401440439		1.935602529800235
id-1274_AU15-100_AU16Open-66_AU24-33	1	1	4	15	3	test_extra	id-1274_AU15-100_AU16Open-66_AU24-33	arousal	0.11685021688423293		1.935602529800235
id-1260_AU12-66_AU25-33	1	1	4	15	4	test	id-1260_AU12-66_AU25-33	valence	0.42120427016409545		4.695262240886223
