	rep	session	run	block	trial	data_split	trial_type	rating_type	rating	rating_intensity	rating_RT
id-1266_AU17-100_AU20-66	1	1	1	1	1	test_extra	id-1266_AU17-100_AU20-66	valence	-0.24728766828988802		3.53593596572864
id-1266_AU17-100_AU20-66	1	1	1	1	1	test_extra	id-1266_AU17-100_AU20-66	arousal	0.255440009002742		3.53593596572864
id-1370_AU2-33_AU27i-66	1	1	1	1	2	test_extra	id-1370_AU2-33_AU27i-66	valence	0.505445124196915		1.76020291887562
id-1370_AU2-33_AU27i-66	1	1	1	1	2	test_extra	id-1370_AU2-33_AU27i-66	arousal	-0.201091070917052		1.76020291887562
id-1335_AU11-100_AU16Open-100_AU5-33	1	1	1	1	3	test_extra	id-1335_AU11-100_AU16Open-100_AU5-33	valence	-0.002717446904284		5.41911332565269
id-1335_AU11-100_AU16Open-100_AU5-33	1	1	1	1	3	test_extra	id-1335_AU11-100_AU16Open-100_AU5-33	arousal	-0.616860447272578		5.41911332565269
id-1270_AU1-100_AU11-33_AU24-33_AU6-33	1	1	1	1	4	test_extra	id-1270_AU1-100_AU11-33_AU24-33_AU6-33	valence	-0.10598042926709499		1.32706994670116
id-1270_AU1-100_AU11-33_AU24-33_AU6-33	1	1	1	1	4	test_extra	id-1270_AU1-100_AU11-33_AU24-33_AU6-33	arousal	-0.17119915496992302		1.32706994670116
id-1280_AU12-100_AU14-33_AU27i-66_AU4-66	1	1	1	1	5	test_extra	id-1280_AU12-100_AU14-33_AU27i-66_AU4-66	valence	-0.36957277898269		3.79531708489139
id-1280_AU12-100_AU14-33_AU27i-66_AU4-66	1	1	1	1	5	test_extra	id-1280_AU12-100_AU14-33_AU27i-66_AU4-66	arousal	0.858713221753898		3.79531708489139
id-1270_AU22-66_AU26-100	1	1	1	1	6	train	id-1270_AU22-66_AU26-100	valence	-0.0054348938085690005		1.99388925128187
id-1270_AU22-66_AU26-100	1	1	1	1	6	train	id-1270_AU22-66_AU26-100	arousal	-0.35055065065269897		1.99388925128187
id-1264_AU10Open-33_AU12-66	1	1	1	1	7	test_extra	id-1264_AU10Open-33_AU12-66	valence	0.073371066415681		2.13547485232539
id-1264_AU10Open-33_AU12-66	1	1	1	1	7	test_extra	id-1264_AU10Open-33_AU12-66	arousal	0.114132769979948		2.13547485232539
id-1323_AU11-33_AU16Open-33_AU2-33_AU27i-100	1	1	1	1	8	test_extra	id-1323_AU11-33_AU16Open-33_AU2-33_AU27i-100	valence	-0.255440009002742		5.30247994853926
id-1323_AU11-33_AU16Open-33_AU2-33_AU27i-100	1	1	1	1	8	test_extra	id-1323_AU11-33_AU16Open-33_AU2-33_AU27i-100	arousal	-0.45924852682407796		5.30247994853926
id-1280_AU11-33_AU17-66_AU2-66_AU26-66_AU9-66	1	1	1	1	9	test	id-1280_AU11-33_AU17-66_AU2-66_AU26-66_AU9-66	valence	-0.407617035642673		1.1518580219872099
id-1280_AU11-33_AU17-66_AU2-66_AU26-66_AU9-66	1	1	1	1	9	test	id-1280_AU11-33_AU17-66_AU2-66_AU26-66_AU9-66	arousal	0.8424085403281909		1.1518580219872099
id-1309_AU2-33_AU26-66_AU4-100_AU5-100	1	1	1	1	10	train	id-1309_AU2-33_AU26-66_AU4-100_AU5-100	valence	-0.182068942587061		2.2020863600564597
id-1309_AU2-33_AU26-66_AU4-100_AU5-100	1	1	1	1	10	train	id-1309_AU2-33_AU26-66_AU4-100_AU5-100	arousal	0.676644279166837		2.2020863600564597
id-1358_AU1-33_AU4-33_AU9-33	1	1	1	1	11	test_extra	id-1358_AU1-33_AU4-33_AU9-33	valence	-0.19022128329991397		8.56953542432166
id-1358_AU1-33_AU4-33_AU9-33	1	1	1	1	11	test_extra	id-1358_AU1-33_AU4-33_AU9-33	arousal	-0.66033959774113		8.56953542432166
id-1358_AU10Open-33_AU22-100_AU6-100	1	1	1	1	12	test_extra	id-1358_AU10Open-33_AU22-100_AU6-100	valence	-0.40489958873838894		5.54409027149086
id-1358_AU10Open-33_AU22-100_AU6-100	1	1	1	1	12	test_extra	id-1358_AU10Open-33_AU22-100_AU6-100	arousal	-0.21739575234275896		5.54409027149086
id-1358_AU16Open-33_AU17-33_AU2-100	1	1	1	1	13	train	id-1358_AU16Open-33_AU17-33_AU2-100	valence	-0.07065361951139701		1.42695792838276
id-1358_AU16Open-33_AU17-33_AU2-100	1	1	1	1	13	train	id-1358_AU16Open-33_AU17-33_AU2-100	arousal	-0.644034916315423		1.42695792838276
id-1279_AU22-66_AU25-66_AU5-66	1	1	1	1	14	test_extra	id-1279_AU22-66_AU25-66_AU5-66	valence	0.144024685927078		3.38554465624929
id-1279_AU22-66_AU25-66_AU5-66	1	1	1	1	14	test_extra	id-1279_AU22-66_AU25-66_AU5-66	arousal	-0.71468853582682		3.38554465624929
id-1355_AU13-33_AU15-100_AU2-100_AU20-66_AU4-33	1	1	1	1	15	test_extra	id-1355_AU13-33_AU15-100_AU2-100_AU20-66_AU4-33	valence	-0.18750383639563		3.41894157026672
id-1355_AU13-33_AU15-100_AU2-100_AU20-66_AU4-33	1	1	1	1	15	test_extra	id-1355_AU13-33_AU15-100_AU2-100_AU20-66_AU4-33	arousal	0.22826553995989698		3.41894157026672
id-1315_AU14-100_AU26-66	1	1	1	1	16	train	id-1315_AU14-100_AU26-66	valence	-0.500010230388346		4.6940085744872695
id-1315_AU14-100_AU26-66	1	1	1	1	16	train	id-1315_AU14-100_AU26-66	arousal	0.39674724802553496		4.6940085744872695
id-1354_AU16Open-66_AU27i-33_AU5-100	1	1	1	1	17	test_extra	id-1354_AU16Open-66_AU27i-33_AU5-100	valence	-0.323376181609854		1.5269473332791699
id-1354_AU16Open-66_AU27i-33_AU5-100	1	1	1	1	17	test_extra	id-1354_AU16Open-66_AU27i-33_AU5-100	arousal	0.43750895158980196		1.5269473332791699
id-1362_AU5-33_AU6-66_AU7-33	1	1	1	1	18	test	id-1362_AU5-33_AU6-66_AU7-33	valence	0.225548093055612		1.102149477897
id-1362_AU5-33_AU6-66_AU7-33	1	1	1	1	18	test	id-1362_AU5-33_AU6-66_AU7-33	arousal	-0.5924034251340179		1.102149477897
id-1358_AU2-33_AU4-33_AU9-100	1	1	1	1	19	train	id-1358_AU2-33_AU4-33_AU9-100	valence	-0.002717446904284		3.69397899271644
id-1358_AU2-33_AU4-33_AU9-100	1	1	1	1	19	train	id-1358_AU2-33_AU4-33_AU9-100	arousal	-0.252722562098457		3.69397899271644
id-1264_AU14-33_AU20-100_AU22-66_AU6-100	1	1	1	1	20	test_extra	id-1264_AU14-33_AU20-100_AU22-66_AU6-100	valence	0.4347915046855179		3.95248443108358
id-1264_AU14-33_AU20-100_AU22-66_AU6-100	1	1	1	1	20	test_extra	id-1264_AU14-33_AU20-100_AU22-66_AU6-100	arousal	-0.14945957973564702		3.95248443108358
id-1376_AU10Open-100_AU11-66_AU13-100_AU6-100	1	1	1	1	21	test_extra	id-1376_AU10Open-100_AU11-66_AU13-100_AU6-100	valence	0.0		0.6019724400521229
id-1376_AU10Open-100_AU11-66_AU13-100_AU6-100	1	1	1	1	21	test_extra	id-1376_AU10Open-100_AU11-66_AU13-100_AU6-100	arousal	-0.002717446904284		0.6019724400521229
id-1289_AU17-33_AU26-66	1	1	1	1	22	test	id-1289_AU17-33_AU26-66	valence	-0.418486823259811		4.27742388655588
id-1289_AU17-33_AU26-66	1	1	1	1	22	test	id-1289_AU17-33_AU26-66	arousal	-0.46468342063264706		4.27742388655588
id-1264_AU14-66_AU15-66_AU20-66_AU6-33	1	1	1	1	23	train	id-1264_AU14-66_AU15-66_AU20-66_AU6-33	valence	-0.33152852232270696		3.8104756296006603
id-1264_AU14-66_AU15-66_AU20-66_AU6-33	1	1	1	1	23	train	id-1264_AU14-66_AU15-66_AU20-66_AU6-33	arousal	-0.26630979661988		3.8104756296006603
id-1296_AU1-66_AU11-33	1	1	1	1	24	test_extra	id-1296_AU1-66_AU11-33	valence	-0.17663404877849198		2.18535937776869
id-1296_AU1-66_AU11-33	1	1	1	1	24	test_extra	id-1296_AU1-66_AU11-33	arousal	-0.8179515181896301		2.18535937776869
id-1361_AU10Open-66_AU11-66_AU15-100_AU2-100	1	1	1	1	25	train	id-1361_AU10Open-66_AU11-66_AU15-100_AU2-100	valence	0.013587234521423		2.47715185500329
id-1361_AU10Open-66_AU11-66_AU15-100_AU2-100	1	1	1	1	25	train	id-1361_AU10Open-66_AU11-66_AU15-100_AU2-100	arousal	0.002717446904284		2.47715185500329
id-1291_AU10Open-66_AU13-33_AU4-33_AU6-100	1	1	1	1	26	test_extra	id-1291_AU10Open-66_AU13-33_AU4-33_AU6-100	valence	-0.222830646151328		0.960360728568958
id-1291_AU10Open-66_AU13-33_AU4-33_AU6-100	1	1	1	1	26	test_extra	id-1291_AU10Open-66_AU13-33_AU4-33_AU6-100	arousal	-0.18750383639563		0.960360728568958
id-1376_AU1-100_AU13-33_AU14-33_AU27i-66	1	1	1	1	27	test	id-1376_AU1-100_AU13-33_AU14-33_AU27i-66	valence	0.13315489830994		1.7939086303604201
id-1376_AU1-100_AU13-33_AU14-33_AU27i-66	1	1	1	1	27	test	id-1376_AU1-100_AU13-33_AU14-33_AU27i-66	arousal	0.7092536420182509		1.7939086303604201
id-1373_AU1-100_AU13-33_AU27i-33_AU6-33	1	1	1	1	28	test_extra	id-1373_AU1-100_AU13-33_AU27i-33_AU6-33	valence	-0.323376181609854		0.7935784012015571
id-1373_AU1-100_AU13-33_AU27i-33_AU6-33	1	1	1	1	28	test_extra	id-1373_AU1-100_AU13-33_AU27i-33_AU6-33	arousal	0.125002557597086		0.7935784012015571
id-1366_AU15-100_AU16Open-33_AU27i-33	1	1	1	1	29	train	id-1366_AU15-100_AU16Open-33_AU27i-33	valence	-0.440226398494087		5.461017715556411
id-1366_AU15-100_AU16Open-33_AU27i-33	1	1	1	1	29	train	id-1366_AU15-100_AU16Open-33_AU27i-33	arousal	-0.07880596022425		5.461017715556411
id-1342_AU1-100_AU14-100_AU15-66_AU5-100_AU7-100	1	1	1	1	30	test	id-1342_AU1-100_AU14-100_AU15-66_AU5-100_AU7-100	valence	0.315223840897		2.7689096189351403
id-1342_AU1-100_AU14-100_AU15-66_AU5-100_AU7-100	1	1	1	1	30	test	id-1342_AU1-100_AU14-100_AU15-66_AU5-100_AU7-100	arousal	0.14945957973564702		2.7689096189351403
id-1260_AU13-66_AU4-100_AU5-33_AU9-100	1	1	1	1	31	train	id-1260_AU13-66_AU4-100_AU5-33_AU9-100	valence	-0.002717446904284		1.90199166820366
id-1260_AU13-66_AU4-100_AU5-33_AU9-100	1	1	1	1	31	train	id-1260_AU13-66_AU4-100_AU5-33_AU9-100	arousal	0.002717446904284		1.90199166820366
id-1290_AU11-66_AU16Open-100_AU43-33_AU6-33	1	1	1	1	32	test_extra	id-1290_AU11-66_AU16Open-100_AU43-33_AU6-33	valence	0.0		5.02744977060502
id-1290_AU11-66_AU16Open-100_AU43-33_AU6-33	1	1	1	1	32	test_extra	id-1290_AU11-66_AU16Open-100_AU43-33_AU6-33	arousal	-0.418486823259811		5.02744977060502
id-1273_AU12-100_AU16Open-33_AU20-100_AU22-66_AU5-66	1	1	1	1	33	test	id-1273_AU12-100_AU16Open-33_AU20-100_AU22-66_AU5-66	valence	0.22011319924704298		3.68562848132933
id-1273_AU12-100_AU16Open-33_AU20-100_AU22-66_AU5-66	1	1	1	1	33	test	id-1273_AU12-100_AU16Open-33_AU20-100_AU22-66_AU5-66	arousal	0.5924034251340179		3.68562848132933
id-1339_AU10Open-100_AU12-33_AU20-100_AU27i-33	1	1	1	1	34	test	id-1339_AU10Open-100_AU12-33_AU20-100_AU27i-33	valence	0.7717549208167941		1.16863330104479
id-1339_AU10Open-100_AU12-33_AU20-100_AU27i-33	1	1	1	1	34	test	id-1339_AU10Open-100_AU12-33_AU20-100_AU27i-33	arousal	0.8206689650939151		1.16863330104479
id-1291_AU1-100_AU16Open-100_AU6-33	1	1	1	1	35	train	id-1291_AU1-100_AU16Open-100_AU6-33	valence	-0.008152340712853002		4.64407182816285
id-1291_AU1-100_AU16Open-100_AU6-33	1	1	1	1	35	train	id-1291_AU1-100_AU16Open-100_AU6-33	arousal	0.0054348938085690005		4.64407182816285
id-1354_AU15-33_AU17-66_AU25-100_AU9-33	1	1	1	1	36	test_extra	id-1354_AU15-33_AU17-66_AU25-100_AU9-33	valence	-0.1576119204485		2.9773774914719997
id-1354_AU15-33_AU17-66_AU25-100_AU9-33	1	1	1	1	36	test_extra	id-1354_AU15-33_AU17-66_AU25-100_AU9-33	arousal	0.1576119204485		2.9773774914719997
id-1354_AU1-66_AU10Open-100	1	1	1	2	1	test	id-1354_AU1-66_AU10Open-100	valence	-0.440226398494087		7.6194145163781295
id-1354_AU1-66_AU10Open-100	1	1	1	2	1	test	id-1354_AU1-66_AU10Open-100	arousal	-0.274462137332733		7.6194145163781295
id-1344_AU1-66_AU12-66_AU24-33_AU27i-33	1	1	1	2	2	train	id-1344_AU1-66_AU12-66_AU24-33_AU27i-33	valence	-0.027174469042845		2.67716085027678
id-1344_AU1-66_AU12-66_AU24-33_AU27i-33	1	1	1	2	2	train	id-1344_AU1-66_AU12-66_AU24-33_AU27i-33	arousal	0.016304681425707		2.67716085027678
id-1285_AU11-33_AU20-66_AU4-66	1	1	1	2	3	test_extra	id-1285_AU11-33_AU20-66_AU4-66	valence	-0.250005115194173		1.9938684233011397
id-1285_AU11-33_AU20-66_AU4-66	1	1	1	2	3	test_extra	id-1285_AU11-33_AU20-66_AU4-66	arousal	-0.36957277898269		1.9938684233011397
id-1291_AU2-66_AU43-100_AU9-100	1	1	1	2	4	test_extra	id-1291_AU2-66_AU43-100_AU9-100	valence	-0.14945957973564702		0.9019648031262479
id-1291_AU2-66_AU43-100_AU9-100	1	1	1	2	4	test_extra	id-1291_AU2-66_AU43-100_AU9-100	arousal	-0.45924852682407796		0.9019648031262479
id-1269_AU10Open-66_AU20-66_AU26-66_AU43-66	1	1	1	2	5	test	id-1269_AU10Open-66_AU20-66_AU26-66_AU43-66	valence	0.008152340712853002		1.88540323727193
id-1269_AU10Open-66_AU20-66_AU26-66_AU43-66	1	1	1	2	5	test	id-1269_AU10Open-66_AU20-66_AU26-66_AU43-66	arousal	0.32609362851413803		1.88540323727193
id-1376_AU13-66_AU16Open-100	1	1	1	2	6	train	id-1376_AU13-66_AU16Open-100	valence	0.307071500184147		2.2270856733366604
id-1376_AU13-66_AU16Open-100	1	1	1	2	6	train	id-1376_AU13-66_AU16Open-100	arousal	-0.36413788517412105		2.2270856733366604
id-1356_AU1-33_AU12-33_AU24-33_AU6-100	1	1	1	2	7	test_extra	id-1356_AU1-33_AU12-33_AU24-33_AU6-100	valence	0.410334482546958		1.01863319539552
id-1356_AU1-33_AU12-33_AU24-33_AU6-100	1	1	1	2	7	test_extra	id-1356_AU1-33_AU12-33_AU24-33_AU6-100	arousal	-0.6059906596554411		1.01863319539552
id-1360_AU1-33_AU15-33_AU26-33	1	1	1	2	8	test_extra	id-1360_AU1-33_AU15-33_AU26-33	valence	0.002717446904284		0.893542752149187
id-1360_AU1-33_AU15-33_AU26-33	1	1	1	2	8	test_extra	id-1360_AU1-33_AU15-33_AU26-33	arousal	-0.673926832262553		0.893542752149187
id-1291_AU15-66_AU20-66_AU7-100	1	1	1	2	9	test_extra	id-1291_AU15-66_AU20-66_AU7-100	valence	-0.342398309939845		2.61897652505286
id-1291_AU15-66_AU20-66_AU7-100	1	1	1	2	9	test_extra	id-1291_AU15-66_AU20-66_AU7-100	arousal	-0.442943845398371		2.61897652505286
id-1363_AU13-66_AU22-100_AU7-66	1	1	1	2	10	test_extra	id-1363_AU13-66_AU22-100_AU7-66	valence	0.040761703564267		1.4437486020351598
id-1363_AU13-66_AU22-100_AU7-66	1	1	1	2	10	test_extra	id-1363_AU13-66_AU22-100_AU7-66	arousal	-0.8559957748496129		1.4437486020351598
id-1361_AU13-66_AU6-33	1	1	1	2	11	test_extra	id-1361_AU13-66_AU6-33	valence	0.076088513319966		1.65201060959316
id-1361_AU13-66_AU6-33	1	1	1	2	11	test_extra	id-1361_AU13-66_AU6-33	arousal	-0.779907261529648		1.65201060959316
id-1361_AU2-100_AU20-66_AU6-100	1	1	1	2	12	test_extra	id-1361_AU2-100_AU20-66_AU6-100	valence	-0.22011319924704298		3.0105866517988
id-1361_AU2-100_AU20-66_AU6-100	1	1	1	2	12	test_extra	id-1361_AU2-100_AU20-66_AU6-100	arousal	-0.5924034251340179		3.0105866517988
id-1355_AU12-66_AU13-100_AU27i-100_AU5-100	1	1	1	2	13	test_extra	id-1355_AU12-66_AU13-100_AU27i-100_AU5-100	valence	0.073371066415681		1.2019179250746699
id-1355_AU12-66_AU13-100_AU27i-100_AU5-100	1	1	1	2	13	test_extra	id-1355_AU12-66_AU13-100_AU27i-100_AU5-100	arousal	0.7092536420182509		1.2019179250746699
id-1311_AU11-66_AU5-100_AU7-66	1	1	1	2	14	test_extra	id-1311_AU11-66_AU5-100_AU7-66	valence	-0.0054348938085690005		1.0435193131234
id-1311_AU11-66_AU5-100_AU7-66	1	1	1	2	14	test_extra	id-1311_AU11-66_AU5-100_AU7-66	arousal	-0.9103447129353031		1.0435193131234
id-1306_AU24-66_AU43-100_AU7-100	1	1	1	2	15	test	id-1306_AU24-66_AU43-100_AU7-100	valence	-0.010869787617138001		1.91878143629128
id-1306_AU24-66_AU43-100_AU7-100	1	1	1	2	15	test	id-1306_AU24-66_AU43-100_AU7-100	arousal	-0.559794062282604		1.91878143629128
id-1345_AU10Open-33_AU27i-100	1	1	1	2	16	train	id-1345_AU10Open-33_AU27i-100	valence	-0.1576119204485		1.29381822484629
id-1345_AU10Open-33_AU27i-100	1	1	1	2	16	train	id-1345_AU10Open-33_AU27i-100	arousal	-0.470118314441216		1.29381822484629
id-1373_AU5-33	1	1	1	2	17	train	id-1373_AU5-33	valence	-0.008152340712853002		1.018616291527
id-1373_AU5-33	1	1	1	2	17	train	id-1373_AU5-33	arousal	-0.983715779350984		1.018616291527
id-1294_AU12-100_AU24-66_AU27i-33	1	1	1	2	18	test_extra	id-1294_AU12-100_AU24-66_AU27i-33	valence	0.442943845398371		3.44389469976159
id-1294_AU12-100_AU24-66_AU27i-33	1	1	1	2	18	test_extra	id-1294_AU12-100_AU24-66_AU27i-33	arousal	0.323376181609854		3.44389469976159
id-1377_AU13-66_AU14-100_AU9-66	1	1	1	2	19	test_extra	id-1377_AU13-66_AU14-100_AU9-66	valence	0.0		4.63578772483288
id-1377_AU13-66_AU14-100_AU9-66	1	1	1	2	19	test_extra	id-1377_AU13-66_AU14-100_AU9-66	arousal	0.008152340712853002		4.63578772483288
id-1307_AU16Open-66_AU17-66_AU43-33	1	1	1	2	20	test_extra	id-1307_AU16Open-66_AU17-66_AU43-33	valence	-0.152177026639931		3.7358341802882897
id-1307_AU16Open-66_AU17-66_AU43-33	1	1	1	2	20	test_extra	id-1307_AU16Open-66_AU17-66_AU43-33	arousal	-0.309788947088431		3.7358341802882897
id-1323_AU10Open-100_AU2-33_AU20-66_AU4-66	1	1	1	2	21	test_extra	id-1323_AU10Open-100_AU2-33_AU20-66_AU4-66	valence	-0.29620171256700895		0.7685914639687329
id-1323_AU10Open-100_AU2-33_AU20-66_AU4-66	1	1	1	2	21	test_extra	id-1323_AU10Open-100_AU2-33_AU20-66_AU4-66	arousal	0.309788947088431		0.7685914639687329
id-1315_AU12-66_AU17-33_AU2-100_AU4-100	1	1	1	2	22	test	id-1315_AU12-66_AU17-33_AU2-100_AU4-100	valence	-0.5190323587183371		4.69412539229779
id-1315_AU12-66_AU17-33_AU2-100_AU4-100	1	1	1	2	22	test	id-1315_AU12-66_AU17-33_AU2-100_AU4-100	arousal	0.111415323075664		4.69412539229779
id-1290_AU11-33_AU5-66	1	1	1	2	23	train	id-1290_AU11-33_AU5-66	valence	-0.05434893808569		1.62709279710998
id-1290_AU11-33_AU5-66	1	1	1	2	23	train	id-1290_AU11-33_AU5-66	arousal	-0.7744723677210792		1.62709279710998
id-1260_AU20-100_AU25-33_AU4-33	1	1	1	2	24	train	id-1260_AU20-100_AU25-33_AU4-33	valence	-0.252722562098457		1.1688264881213402
id-1260_AU20-100_AU25-33_AU4-33	1	1	1	2	24	train	id-1260_AU20-100_AU25-33_AU4-33	arousal	-0.38316001350411294		1.1688264881213402
id-1307_AU10Open-66_AU17-33_AU22-33_AU9-100	1	1	1	2	25	test	id-1307_AU10Open-66_AU17-33_AU22-33_AU9-100	valence	-0.6222953410811469		1.9937081383977802
id-1307_AU10Open-66_AU17-33_AU22-33_AU9-100	1	1	1	2	25	test	id-1307_AU10Open-66_AU17-33_AU22-33_AU9-100	arousal	0.307071500184147		1.9937081383977802
id-1269_AU15-66_AU16Open-66_AU26-33_AU27i-100	1	1	1	2	26	test	id-1269_AU15-66_AU16Open-66_AU26-33_AU27i-100	valence	0.002717446904284		2.4772297335439397
id-1269_AU15-66_AU16Open-66_AU26-33_AU27i-100	1	1	1	2	26	test	id-1269_AU15-66_AU16Open-66_AU26-33_AU27i-100	arousal	-0.029891915947129		2.4772297335439397
id-1335_AU11-66_AU17-66_AU25-66_AU6-33	1	1	1	2	27	train	id-1335_AU11-66_AU17-66_AU25-66_AU6-33	valence	0.36413788517412105		2.5187260157490496
id-1335_AU11-66_AU17-66_AU25-66_AU6-33	1	1	1	2	27	train	id-1335_AU11-66_AU17-66_AU25-66_AU6-33	arousal	0.002717446904284		2.5187260157490496
id-1302_AU15-66_AU24-100_AU25-100_AU43-33	1	1	1	2	28	test	id-1302_AU15-66_AU24-100_AU25-100_AU43-33	valence	0.0054348938085690005		1.56870079577948
id-1302_AU15-66_AU24-100_AU25-100_AU43-33	1	1	1	2	28	test	id-1302_AU15-66_AU24-100_AU25-100_AU43-33	arousal	-0.7228408765396729		1.56870079577948
id-1296_AU12-66_AU6-66	1	1	1	2	29	test_extra	id-1296_AU12-66_AU6-66	valence	0.402182141834104		1.19370143722153
id-1296_AU12-66_AU6-66	1	1	1	2	29	test_extra	id-1296_AU12-66_AU6-66	arousal	-0.347833203748414		1.19370143722153
id-1356_AU13-100_AU25-33_AU26-100	1	1	1	2	30	train	id-1356_AU13-100_AU25-33_AU26-100	valence	-0.008152340712853002		1.09376002723911
id-1356_AU13-100_AU25-33_AU26-100	1	1	1	2	30	train	id-1356_AU13-100_AU25-33_AU26-100	arousal	0.543489380856897		1.09376002723911
id-1342_AU11-33_AU4-100_AU43-100_AU5-33	1	1	1	2	31	test_extra	id-1342_AU11-33_AU4-100_AU43-100_AU5-33	valence	0.0		1.1104423350161599
id-1342_AU11-33_AU4-100_AU43-100_AU5-33	1	1	1	2	31	test_extra	id-1342_AU11-33_AU4-100_AU43-100_AU5-33	arousal	0.0		1.1104423350161599
id-1289_AU11-100_AU7-100	1	1	1	2	32	test_extra	id-1289_AU11-100_AU7-100	valence	-0.38587746040839704		1.46050395867405
id-1289_AU11-100_AU7-100	1	1	1	2	32	test_extra	id-1289_AU11-100_AU7-100	arousal	-0.657622150836846		1.46050395867405
id-1260_AU13-33_AU4-66	1	1	1	2	33	train	id-1260_AU13-33_AU4-66	valence	-0.277179584237018		3.20211141400523
id-1260_AU13-33_AU4-66	1	1	1	2	33	train	id-1260_AU13-33_AU4-66	arousal	-0.73914555796538		3.20211141400523
id-1341_AU12-66_AU20-66	1	1	1	2	34	train	id-1341_AU12-66_AU20-66	valence	0.461965973728363		1.218666037199
id-1341_AU12-66_AU20-66	1	1	1	2	34	train	id-1341_AU12-66_AU20-66	arousal	-0.002717446904284		1.218666037199
id-1339_AU1-66_AU10Open-33_AU26-33	1	1	1	2	35	train	id-1339_AU1-66_AU10Open-33_AU26-33	valence	0.17663404877849198		3.2022179687528505
id-1339_AU1-66_AU10Open-33_AU26-33	1	1	1	2	35	train	id-1339_AU1-66_AU10Open-33_AU26-33	arousal	0.10326298236281001		3.2022179687528505
id-1366_AU14-33_AU25-33	1	1	1	2	36	test_extra	id-1366_AU14-33_AU25-33	valence	0.07065361951139701		2.56886198624761
id-1366_AU14-33_AU25-33	1	1	1	2	36	test_extra	id-1366_AU14-33_AU25-33	arousal	-0.831538752711053		2.56886198624761
id-1307_AU1-66_AU10Open-100_AU6-33	1	1	1	3	1	test_extra	id-1307_AU1-66_AU10Open-100_AU6-33	valence	-0.480988102058354		4.26895323695499
id-1307_AU1-66_AU10Open-100_AU6-33	1	1	1	3	1	test_extra	id-1307_AU1-66_AU10Open-100_AU6-33	arousal	0.14945957973564702		4.26895323695499
id-1370_AU17-66_AU20-66_AU26-66_AU5-100	1	1	1	3	2	test_extra	id-1370_AU17-66_AU20-66_AU26-66_AU5-100	valence	-0.510880018005483		7.68623973731428
id-1370_AU17-66_AU20-66_AU26-66_AU5-100	1	1	1	3	2	test_extra	id-1370_AU17-66_AU20-66_AU26-66_AU5-100	arousal	0.114132769979948		7.68623973731428
id-1339_AU17-100_AU2-33_AU22-33_AU25-33	1	1	1	3	3	test_extra	id-1339_AU17-100_AU2-33_AU22-33_AU25-33	valence	-0.0054348938085690005		2.30209236696646
id-1339_AU17-100_AU2-33_AU22-33_AU25-33	1	1	1	3	3	test_extra	id-1339_AU17-100_AU2-33_AU22-33_AU25-33	arousal	-0.755450239391087		2.30209236696646
id-1290_AU13-100_AU20-33_AU25-33	1	1	1	3	4	test_extra	id-1290_AU13-100_AU20-33_AU25-33	valence	0.0054348938085690005		0.7686681350896829
id-1290_AU13-100_AU20-33_AU25-33	1	1	1	3	4	test_extra	id-1290_AU13-100_AU20-33_AU25-33	arousal	-0.41305192945124203		0.7686681350896829
id-1293_AU1-33_AU22-33_AU27i-100	1	1	1	3	5	test_extra	id-1293_AU1-33_AU22-33_AU27i-100	valence	-0.255440009002742		1.10204201758552
id-1293_AU1-33_AU22-33_AU27i-100	1	1	1	3	5	test_extra	id-1293_AU1-33_AU22-33_AU27i-100	arousal	-0.7744723677210792		1.10204201758552
id-1377_AU2-33_AU6-33	1	1	1	3	6	test_extra	id-1377_AU2-33_AU6-33	valence	0.111415323075664		0.943595410719354
id-1377_AU2-33_AU6-33	1	1	1	3	6	test_extra	id-1377_AU2-33_AU6-33	arousal	-0.875017903179605		0.943595410719354
id-1279_AU17-66_AU20-33_AU24-100_AU27i-66	1	1	1	3	7	test_extra	id-1279_AU17-66_AU20-33_AU24-100_AU27i-66	valence	-0.111415323075664		2.3022460110642
id-1279_AU17-66_AU20-33_AU24-100_AU27i-66	1	1	1	3	7	test_extra	id-1279_AU17-66_AU20-33_AU24-100_AU27i-66	arousal	0.47555320824978503		2.3022460110642
id-1306_AU12-100_AU26-66_AU4-100_AU5-66	1	1	1	3	8	test_extra	id-1306_AU12-100_AU26-66_AU4-100_AU5-66	valence	-0.301636606375578		2.78543405664823
id-1306_AU12-100_AU26-66_AU4-100_AU5-66	1	1	1	3	8	test_extra	id-1306_AU12-100_AU26-66_AU4-100_AU5-66	arousal	0.42120427016409495		2.78543405664823
id-1260_AU22-100_AU25-100_AU26-100	1	1	1	3	9	test	id-1260_AU22-100_AU25-100_AU26-100	valence	0.002717446904284		1.57706277764919
id-1260_AU22-100_AU25-100_AU26-100	1	1	1	3	9	test	id-1260_AU22-100_AU25-100_AU26-100	arousal	0.21196085853418997		1.57706277764919
id-1366_AU11-66_AU14-66_AU9-33	1	1	1	3	10	test_extra	id-1366_AU11-66_AU14-66_AU9-33	valence	-0.38044256659982795		0.577802321928175
id-1366_AU11-66_AU14-66_AU9-33	1	1	1	3	10	test_extra	id-1366_AU11-66_AU14-66_AU9-33	arousal	-0.255440009002742		0.577802321928175
id-1335_AU1-33_AU14-66_AU27i-66_AU7-100	1	1	1	3	11	test_extra	id-1335_AU1-33_AU14-66_AU27i-66_AU7-100	valence	0.42663916397266405		1.16864929935036
id-1335_AU1-33_AU14-66_AU27i-66_AU7-100	1	1	1	3	11	test_extra	id-1335_AU1-33_AU14-66_AU27i-66_AU7-100	arousal	0.198373624012768		1.16864929935036
id-1291_AU4-100_AU43-33_AU7-66	1	1	1	3	12	test	id-1291_AU4-100_AU43-33_AU7-66	valence	-0.255440009002742		1.08522055474168
id-1291_AU4-100_AU43-33_AU7-66	1	1	1	3	12	test	id-1291_AU4-100_AU43-33_AU7-66	arousal	-0.796211942955355		1.08522055474168
id-1355_AU15-100_AU17-66	1	1	1	3	13	train	id-1355_AU15-100_AU17-66	valence	-0.366855332078406		3.1021989820837903
id-1355_AU15-100_AU17-66	1	1	1	3	13	train	id-1355_AU15-100_AU17-66	arousal	-0.312506393992716		3.1021989820837903
id-1361_AU11-100_AU12-33_AU13-33	1	1	1	3	14	train	id-1361_AU11-100_AU12-33_AU13-33	valence	0.21739575234275896		0.952067569594874
id-1361_AU11-100_AU12-33_AU13-33	1	1	1	3	14	train	id-1361_AU11-100_AU12-33_AU13-33	arousal	-0.184786389491345		0.952067569594874
id-1342_AU1-100_AU27i-33	1	1	1	3	15	train	id-1342_AU1-100_AU27i-33	valence	-0.0054348938085690005		4.9025084436343604
id-1342_AU1-100_AU27i-33	1	1	1	3	15	train	id-1342_AU1-100_AU27i-33	arousal	-0.14945957973564702		4.9025084436343604
id-1285_AU15-100_AU17-33_AU7-66_AU9-33	1	1	1	3	16	train	id-1285_AU15-100_AU17-33_AU7-66_AU9-33	valence	-0.644034916315423		2.56055464009842
id-1285_AU15-100_AU17-33_AU7-66_AU9-33	1	1	1	3	16	train	id-1285_AU15-100_AU17-33_AU7-66_AU9-33	arousal	0.239135327577035		2.56055464009842
id-1310_AU12-33_AU14-33_AU22-100_AU6-100	1	1	1	3	17	test	id-1310_AU12-33_AU14-33_AU22-100_AU6-100	valence	0.0		3.16890436666108
id-1310_AU12-33_AU14-33_AU22-100_AU6-100	1	1	1	3	17	test	id-1310_AU12-33_AU14-33_AU22-100_AU6-100	arousal	-0.33152852232270696		3.16890436666108
id-1344_AU1-33_AU10Open-100	1	1	1	3	18	test_extra	id-1344_AU1-33_AU10Open-100	valence	-0.130437451405655		1.9855770754566002
id-1344_AU1-33_AU10Open-100	1	1	1	3	18	test_extra	id-1344_AU1-33_AU10Open-100	arousal	-0.891322584605312		1.9855770754566002
id-1335_AU43-66_AU5-66	1	1	1	3	19	test	id-1335_AU43-66_AU5-66	valence	-0.013587234521423		1.56895586309111
id-1335_AU43-66_AU5-66	1	1	1	3	19	test	id-1335_AU43-66_AU5-66	arousal	-0.90219237222245		1.56895586309111
id-1335_AU12-100_AU20-100_AU5-33	1	1	1	3	20	test_extra	id-1335_AU12-100_AU20-100_AU5-33	valence	-0.125002557597086		5.27755006186453
id-1335_AU12-100_AU20-100_AU5-33	1	1	1	3	20	test_extra	id-1335_AU12-100_AU20-100_AU5-33	arousal	-0.119567663788517		5.27755006186453
id-1318_AU22-100_AU26-100_AU27i-33_AU4-33_AU6-33	1	1	1	3	21	test	id-1318_AU22-100_AU26-100_AU27i-33_AU4-33_AU6-33	valence	-0.315223840897		2.03558204096771
id-1318_AU22-100_AU26-100_AU27i-33_AU4-33_AU6-33	1	1	1	3	21	test	id-1318_AU22-100_AU26-100_AU27i-33_AU4-33_AU6-33	arousal	0.5299021463354749		2.03558204096771
id-1323_AU25-33_AU26-66	1	1	1	3	22	test_extra	id-1323_AU25-33_AU26-66	valence	-0.222830646151328		0.885345583004892
id-1323_AU25-33_AU26-66	1	1	1	3	22	test_extra	id-1323_AU25-33_AU26-66	arousal	-0.46468342063264706		0.885345583004892
id-1311_AU10Open-66_AU16Open-33_AU25-100	1	1	1	3	23	train	id-1311_AU10Open-66_AU16Open-33_AU25-100	valence	-0.09511064164995699		2.09378266635031
id-1311_AU10Open-66_AU16Open-33_AU25-100	1	1	1	3	23	train	id-1311_AU10Open-66_AU16Open-33_AU25-100	arousal	-0.7011013013053979		2.09378266635031
id-1291_AU15-100_AU22-66	1	1	1	3	24	test_extra	id-1291_AU15-100_AU22-66	valence	-0.076088513319966		1.04369318149293
id-1291_AU15-100_AU22-66	1	1	1	3	24	test_extra	id-1291_AU15-100_AU22-66	arousal	-0.9674110979252769		1.04369318149293
id-1297_AU14-66_AU25-100	1	1	1	3	25	test_extra	id-1297_AU14-66_AU25-100	valence	0.22011319924704298		0.8353113375760591
id-1297_AU14-66_AU25-100	1	1	1	3	25	test_extra	id-1297_AU14-66_AU25-100	arousal	-0.230982986864181		0.8353113375760591
id-1335_AU1-66_AU20-100_AU4-66_AU5-33	1	1	1	3	26	test_extra	id-1335_AU1-66_AU20-100_AU4-66_AU5-33	valence	-0.198373624012768		2.3023703752460296
id-1335_AU1-66_AU20-100_AU4-66_AU5-33	1	1	1	3	26	test_extra	id-1335_AU1-66_AU20-100_AU4-66_AU5-33	arousal	-0.22011319924704298		2.3023703752460296
id-1264_AU10Open-33_AU25-66_AU4-66	1	1	1	3	27	test	id-1264_AU10Open-33_AU25-66_AU4-66	valence	-0.33696341613127595		3.29401111006882
id-1264_AU10Open-33_AU25-66_AU4-66	1	1	1	3	27	test	id-1264_AU10Open-33_AU25-66_AU4-66	arousal	-0.21467830543847402		3.29401111006882
id-1295_AU11-66_AU24-66_AU43-100_AU6-33	1	1	1	3	28	test_extra	id-1295_AU11-66_AU24-66_AU43-100_AU6-33	valence	-0.279897031141302		1.0435482911834701
id-1295_AU11-66_AU24-66_AU43-100_AU6-33	1	1	1	3	28	test_extra	id-1295_AU11-66_AU24-66_AU43-100_AU6-33	arousal	-0.899474925318165		1.0435482911834701
id-1363_AU13-100_AU20-66_AU22-66_AU5-66	1	1	1	3	29	train	id-1363_AU13-100_AU20-66_AU22-66_AU5-66	valence	0.076088513319966		0.902012798040232
id-1363_AU13-100_AU20-66_AU22-66_AU5-66	1	1	1	3	29	train	id-1363_AU13-100_AU20-66_AU22-66_AU5-66	arousal	-0.051631491181405004		0.902012798040232
id-1376_AU16Open-66_AU17-66_AU6-33	1	1	1	3	30	test_extra	id-1376_AU16Open-66_AU17-66_AU6-33	valence	0.0		0.9353574911765459
id-1376_AU16Open-66_AU17-66_AU6-33	1	1	1	3	30	test_extra	id-1376_AU16Open-66_AU17-66_AU6-33	arousal	0.008152340712853002		0.9353574911765459
id-1373_AU12-66_AU15-66_AU16Open-33	1	1	1	3	31	train	id-1373_AU12-66_AU15-66_AU16Open-33	valence	-0.013587234521423		1.50213215143231
id-1373_AU12-66_AU15-66_AU16Open-33	1	1	1	3	31	train	id-1373_AU12-66_AU15-66_AU16Open-33	arousal	-0.9864332262552691		1.50213215143231
id-1344_AU12-66_AU20-33	1	1	1	3	32	train	id-1344_AU12-66_AU20-33	valence	-0.24728766828988802		2.5354819760978
id-1344_AU12-66_AU20-33	1	1	1	3	32	train	id-1344_AU12-66_AU20-33	arousal	-0.845125987232476		2.5354819760978
id-1291_AU20-33_AU24-100_AU25-33_AU27i-100	1	1	1	3	33	test	id-1291_AU20-33_AU24-100_AU25-33_AU27i-100	valence	-0.008152340712853002		3.3273020730484903
id-1291_AU20-33_AU24-100_AU25-33_AU27i-100	1	1	1	3	33	test	id-1291_AU20-33_AU24-100_AU25-33_AU27i-100	arousal	-0.201091070917052		3.3273020730484903
id-1360_AU13-100_AU2-66_AU24-33	1	1	1	3	34	train	id-1360_AU13-100_AU2-66_AU24-33	valence	-0.543489380856897		1.8271111498834198
id-1360_AU13-100_AU2-66_AU24-33	1	1	1	3	34	train	id-1360_AU13-100_AU2-66_AU24-33	arousal	-0.260874902811311		1.8271111498834198
id-1302_AU1-33_AU14-100_AU27i-100_AU9-100	1	1	1	3	35	train	id-1302_AU1-33_AU14-100_AU27i-100_AU9-100	valence	0.002717446904284		1.0936323426558399
id-1302_AU1-33_AU14-100_AU27i-100_AU9-100	1	1	1	3	35	train	id-1302_AU1-33_AU14-100_AU27i-100_AU9-100	arousal	0.250005115194173		1.0936323426558399
id-1356_AU13-100_AU15-33_AU16Open-100	1	1	1	3	36	test_extra	id-1356_AU13-100_AU15-33_AU16Open-100	valence	-0.002717446904284		0.785221249008828
id-1356_AU13-100_AU15-33_AU16Open-100	1	1	1	3	36	test_extra	id-1356_AU13-100_AU15-33_AU16Open-100	arousal	-0.002717446904284		0.785221249008828
id-1361_AU12-33_AU15-33_AU16Open-100_AU6-66	1	1	1	4	1	test	id-1361_AU12-33_AU15-33_AU16Open-100_AU6-66	valence	0.021739575234276002		7.71935260595819
id-1361_AU12-33_AU15-33_AU16Open-100_AU6-66	1	1	1	4	1	test	id-1361_AU12-33_AU15-33_AU16Open-100_AU6-66	arousal	-0.317941287801285		7.71935260595819
id-1344_AU2-33_AU20-100_AU24-100	1	1	1	4	2	test	id-1344_AU2-33_AU20-100_AU24-100	valence	-0.14945957973564702		1.5935974784260902
id-1344_AU2-33_AU20-100_AU24-100	1	1	1	4	2	test	id-1344_AU2-33_AU20-100_AU24-100	arousal	0.144024685927078		1.5935974784260902
id-1291_AU10Open-33_AU11-100_AU15-100	1	1	1	4	3	test_extra	id-1291_AU10Open-33_AU11-100_AU15-100	valence	-0.28533192494987103		0.9270984417962608
id-1291_AU10Open-33_AU11-100_AU15-100	1	1	1	4	3	test_extra	id-1291_AU10Open-33_AU11-100_AU15-100	arousal	0.5570766153783199		0.9270984417962608
id-1380_AU2-33_AU25-100_AU7-33	1	1	1	4	4	test_extra	id-1380_AU2-33_AU25-100_AU7-33	valence	-0.019022128329991003		0.852070618328071
id-1380_AU2-33_AU25-100_AU7-33	1	1	1	4	4	test_extra	id-1380_AU2-33_AU25-100_AU7-33	arousal	-0.934801735073863		0.852070618328071
id-1293_AU2-33_AU25-33_AU7-100	1	1	1	4	5	test_extra	id-1293_AU2-33_AU25-33_AU7-100	valence	0.0		1.01024253731885
id-1293_AU2-33_AU25-33_AU7-100	1	1	1	4	5	test_extra	id-1293_AU2-33_AU25-33_AU7-100	arousal	-0.8858876907967429		1.01024253731885
id-1274_AU10Open-66_AU2-33_AU43-100_AU9-66	1	1	1	4	6	test	id-1274_AU10Open-66_AU2-33_AU43-100_AU9-66	valence	-0.222830646151328		2.42055136195268
id-1274_AU10Open-66_AU2-33_AU43-100_AU9-66	1	1	1	4	6	test	id-1274_AU10Open-66_AU2-33_AU43-100_AU9-66	arousal	0.002717446904284		2.42055136195268
id-1302_AU26-100	1	1	1	4	7	train	id-1302_AU26-100	valence	-0.34511575684413		3.5938987295230604
id-1302_AU26-100	1	1	1	4	7	train	id-1302_AU26-100	arousal	0.17663404877849198		3.5938987295230604
id-1311_AU20-33_AU22-100_AU24-66_AU5-66	1	1	1	4	8	test_extra	id-1311_AU20-33_AU22-100_AU24-66_AU5-66	valence	-0.002717446904284		2.17717941434603
id-1311_AU20-33_AU22-100_AU24-66_AU5-66	1	1	1	4	8	test_extra	id-1311_AU20-33_AU22-100_AU24-66_AU5-66	arousal	-0.201091070917052		2.17717941434603
id-1274_AU15-33_AU16Open-100_AU17-100_AU25-100	1	1	1	4	9	test_extra	id-1274_AU15-33_AU16Open-100_AU17-100_AU25-100	valence	-0.263592349715595		0.860303708195715
id-1274_AU15-33_AU16Open-100_AU17-100_AU25-100	1	1	1	4	9	test_extra	id-1274_AU15-33_AU16Open-100_AU17-100_AU25-100	arousal	-0.328811075418423		0.860303708195715
id-1342_AU1-33_AU20-66_AU7-33	1	1	1	4	10	test_extra	id-1342_AU1-33_AU20-66_AU7-33	valence	-0.05434893808569		2.4021720264499904
id-1342_AU1-33_AU20-66_AU7-33	1	1	1	4	10	test_extra	id-1342_AU1-33_AU20-66_AU7-33	arousal	-0.6956664074968291		2.4021720264499904
id-1270_AU14-66_AU15-100_AU43-33	1	1	1	4	11	test_extra	id-1270_AU14-66_AU15-100_AU43-33	valence	-0.021739575234276002		1.68540752360968
id-1270_AU14-66_AU15-100_AU43-33	1	1	1	4	11	test_extra	id-1270_AU14-66_AU15-100_AU43-33	arousal	-0.48914044277120794		1.68540752360968
id-1309_AU12-100_AU15-100_AU27i-100	1	1	1	4	12	test_extra	id-1309_AU12-100_AU15-100_AU27i-100	valence	-0.013587234521423		1.0770946233315
id-1309_AU12-100_AU15-100_AU27i-100	1	1	1	4	12	test_extra	id-1309_AU12-100_AU15-100_AU27i-100	arousal	-0.6875140667839749		1.0770946233315
id-1377_AU10Open-66_AU16Open-66_AU26-100	1	1	1	4	13	train	id-1377_AU10Open-66_AU16Open-66_AU26-100	valence	-0.10869787617138		1.50202861523212
id-1377_AU10Open-66_AU16Open-66_AU26-100	1	1	1	4	13	train	id-1377_AU10Open-66_AU16Open-66_AU26-100	arousal	0.415769376355526		1.50202861523212
id-1269_AU14-100_AU20-100_AU5-66	1	1	1	4	14	test_extra	id-1269_AU14-100_AU20-100_AU5-66	valence	-0.21739575234275896		1.89380355470348
id-1269_AU14-100_AU20-100_AU5-66	1	1	1	4	14	test_extra	id-1269_AU14-100_AU20-100_AU5-66	arousal	-0.445661292302656		1.89380355470348
id-1339_AU10Open-66_AU20-66_AU27i-100	1	1	1	4	15	train	id-1339_AU10Open-66_AU20-66_AU27i-100	valence	-0.48370554896263895		2.24367983951015
id-1339_AU10Open-66_AU20-66_AU27i-100	1	1	1	4	15	train	id-1339_AU10Open-66_AU20-66_AU27i-100	arousal	0.42120427016409495		2.24367983951015
id-1360_AU6-33_AU9-33	1	1	1	4	16	train	id-1360_AU6-33_AU9-33	valence	-0.08152340712853501		0.97694493353265
id-1360_AU6-33_AU9-33	1	1	1	4	16	train	id-1360_AU6-33_AU9-33	arousal	-0.39946469492982		0.97694493353265
id-1294_AU16Open-66_AU7-100	1	1	1	4	17	test_extra	id-1294_AU16Open-66_AU7-100	valence	-0.008152340712853002		1.56862050240125
id-1294_AU16Open-66_AU7-100	1	1	1	4	17	test_extra	id-1294_AU16Open-66_AU7-100	arousal	-0.801646836763924		1.56862050240125
id-1297_AU11-100_AU24-33	1	1	1	4	18	test	id-1297_AU11-100_AU24-33	valence	-0.062501278798543		3.7606889051148795
id-1297_AU11-100_AU24-33	1	1	1	4	18	test	id-1297_AU11-100_AU24-33	arousal	-0.747297898678234		3.7606889051148795
id-1285_AU27i-100_AU4-33_AU6-100	1	1	1	4	19	test_extra	id-1285_AU27i-100_AU4-33_AU6-100	valence	-0.250005115194173		4.11063522023687
id-1285_AU27i-100_AU4-33_AU6-100	1	1	1	4	19	test_extra	id-1285_AU27i-100_AU4-33_AU6-100	arousal	0.513597464909768		4.11063522023687
id-1323_AU13-100_AU20-33_AU6-100	1	1	1	4	20	train	id-1323_AU13-100_AU20-33_AU6-100	valence	-0.258157455907026		1.17711240257995
id-1323_AU13-100_AU20-33_AU6-100	1	1	1	4	20	train	id-1323_AU13-100_AU20-33_AU6-100	arousal	-0.48914044277120794		1.17711240257995
id-1360_AU24-66_AU26-33_AU5-100_AU7-33	1	1	1	4	21	test_extra	id-1360_AU24-66_AU26-33_AU5-100_AU7-33	valence	-0.18750383639563		2.8272789811562697
id-1360_AU24-66_AU26-33_AU5-100_AU7-33	1	1	1	4	21	test_extra	id-1360_AU24-66_AU26-33_AU5-100_AU7-33	arousal	0.029891915947129		2.8272789811562697
id-1274_AU22-66_AU24-100	1	1	1	4	22	test_extra	id-1274_AU22-66_AU24-100	valence	-0.059783831894259		0.951793787286078
id-1274_AU22-66_AU24-100	1	1	1	4	22	test_extra	id-1274_AU22-66_AU24-100	arousal	-0.7880596022425009		0.951793787286078
id-1289_AU10Open-66_AU22-66_AU43-100_AU5-33	1	1	1	4	23	test_extra	id-1289_AU10Open-66_AU22-66_AU43-100_AU5-33	valence	-0.26902724352416396		0.918693596542653
id-1289_AU10Open-66_AU22-66_AU43-100_AU5-33	1	1	1	4	23	test_extra	id-1289_AU10Open-66_AU22-66_AU43-100_AU5-33	arousal	-0.559794062282604		0.918693596542653
id-1274_AU15-100_AU16Open-66_AU24-33	1	1	1	4	24	test_extra	id-1274_AU15-100_AU16Open-66_AU24-33	valence	-0.230982986864181		2.16051702898767
id-1274_AU15-100_AU16Open-66_AU24-33	1	1	1	4	24	test_extra	id-1274_AU15-100_AU16Open-66_AU24-33	arousal	-0.8559957748496129		2.16051702898767
id-1335_AU10Open-33_AU17-100	1	1	1	4	25	train	id-1335_AU10Open-33_AU17-100	valence	-0.23641788067275		0.9686765266524159
id-1335_AU10Open-33_AU17-100	1	1	1	4	25	train	id-1335_AU10Open-33_AU17-100	arousal	-0.7744723677210792		0.9686765266524159
id-1270_AU12-100_AU13-100_AU14-66_AU2-100_AU25-66	1	1	1	4	26	train	id-1270_AU12-100_AU13-100_AU14-66_AU2-100_AU25-66	valence	0.5679464029954581		0.668533538031625
id-1270_AU12-100_AU13-100_AU14-66_AU2-100_AU25-66	1	1	1	4	26	train	id-1270_AU12-100_AU13-100_AU14-66_AU2-100_AU25-66	arousal	0.451096186111225		0.668533538031625
id-1362_AU6-100	1	1	1	4	27	test_extra	id-1362_AU6-100	valence	0.225548093055612		1.2353033686104
id-1362_AU6-100	1	1	1	4	27	test_extra	id-1362_AU6-100	arousal	-0.8668655624667511		1.2353033686104
id-1285_AU16Open-33_AU5-33	1	1	1	4	28	test	id-1285_AU16Open-33_AU5-33	valence	0.002717446904284		1.19380950124287
id-1285_AU16Open-33_AU5-33	1	1	1	4	28	test	id-1285_AU16Open-33_AU5-33	arousal	-0.904909819126734		1.19380950124287
id-1270_AU16Open-66_AU20-66_AU6-66	1	1	1	4	29	test_extra	id-1270_AU16Open-66_AU20-66_AU6-66	valence	-0.21196085853418997		1.41864514884583
id-1270_AU16Open-66_AU20-66_AU6-66	1	1	1	4	29	test_extra	id-1270_AU16Open-66_AU20-66_AU6-66	arousal	-0.7826247084339321		1.41864514884583
id-1309_AU11-66_AU24-66	1	1	1	4	30	test	id-1309_AU11-66_AU24-66	valence	-0.013587234521423		3.5439456830372404
id-1309_AU11-66_AU24-66	1	1	1	4	30	test	id-1309_AU11-66_AU24-66	arousal	-0.684796619879691		3.5439456830372404
id-1295_AU1-100_AU16Open-100_AU24-33_AU4-100	1	1	1	4	31	test_extra	id-1295_AU1-100_AU16Open-100_AU24-33_AU4-100	valence	-0.21739575234275896		0.943725811997865
id-1295_AU1-100_AU16Open-100_AU24-33_AU4-100	1	1	1	4	31	test_extra	id-1295_AU1-100_AU16Open-100_AU24-33_AU4-100	arousal	-0.7011013013053979		0.943725811997865
id-1290_AU10Open-33_AU14-66_AU24-66	1	1	1	4	32	test	id-1290_AU10Open-33_AU14-66_AU24-66	valence	-0.24457022138560397		0.902032116746341
id-1290_AU10Open-33_AU14-66_AU24-66	1	1	1	4	32	test	id-1290_AU10Open-33_AU14-66_AU24-66	arousal	0.638600022506854		0.902032116746341
id-1318_AU1-33_AU13-66_AU26-66	1	1	1	4	33	test_extra	id-1318_AU1-33_AU13-66_AU26-66	valence	-0.043479150468552004		1.2435744921822298
id-1318_AU1-33_AU13-66_AU26-66	1	1	1	4	33	test_extra	id-1318_AU1-33_AU13-66_AU26-66	arousal	-0.7309932172525271		1.2435744921822298
id-1361_AU15-66_AU24-66_AU7-66	1	1	1	4	34	train	id-1361_AU15-66_AU24-66_AU7-66	valence	-0.035326809755698		0.976833549109869
id-1361_AU15-66_AU24-66_AU7-66	1	1	1	4	34	train	id-1361_AU15-66_AU24-66_AU7-66	arousal	-0.807081730572492		0.976833549109869
id-1362_AU26-66_AU9-66	1	1	1	4	35	test_extra	id-1362_AU26-66_AU9-66	valence	-0.0054348938085690005		0.960272285110477
id-1362_AU26-66_AU9-66	1	1	1	4	35	test_extra	id-1362_AU26-66_AU9-66	arousal	0.002717446904284		0.960272285110477
id-1339_AU11-100_AU15-66_AU43-33	1	1	1	4	36	train	id-1339_AU11-100_AU15-66_AU43-33	valence	-0.002717446904284		2.6520948270845097
id-1339_AU11-100_AU15-66_AU43-33	1	1	1	4	36	train	id-1339_AU11-100_AU15-66_AU43-33	arousal	-0.5679464029954581		2.6520948270845097
id-1335_AU1-33_AU14-66_AU27i-66_AU7-100	1	1	2	5	1	test_extra	id-1335_AU1-33_AU14-66_AU27i-66_AU7-100	emotion	Blij	0.39035121488627	3.1200444212081493
id-1318_AU22-100_AU26-100_AU27i-33_AU4-33_AU6-33	1	1	2	5	2	test	id-1318_AU22-100_AU26-100_AU27i-33_AU4-33_AU6-33	emotion	Boos	0.3039147993049853	1.011263474874795
id-1279_AU17-66_AU20-33_AU24-100_AU27i-66	1	1	2	5	3	test_extra	id-1279_AU17-66_AU20-33_AU24-100_AU27i-66	emotion	Bang	0.11125972742933693	5.920350624481214
id-1377_AU2-33_AU6-33	1	1	2	5	4	test_extra	id-1377_AU2-33_AU6-33	emotion	Geen van allen	0.0	1.0278791680357244
id-1335_AU1-66_AU20-100_AU4-66_AU5-33	1	1	2	5	5	test_extra	id-1335_AU1-66_AU20-100_AU4-66_AU5-33	emotion	Geen van allen	0.0	5.2370135280034456
id-1344_AU1-33_AU10Open-100	1	1	2	5	6	test_extra	id-1344_AU1-33_AU10Open-100	emotion	Walging	0.06003032305714754	1.0446611841471167
id-1370_AU17-66_AU20-66_AU26-66_AU5-100	1	1	2	5	7	test_extra	id-1370_AU17-66_AU20-66_AU26-66_AU5-100	emotion	Bang	0.2776922235414401	2.5282208696371526
id-1311_AU10Open-66_AU16Open-33_AU25-100	1	1	2	5	8	train	id-1311_AU10Open-66_AU16Open-33_AU25-100	emotion	Boos	0.0772652960651891	1.9866866173706512
id-1310_AU12-33_AU14-33_AU22-100_AU6-100	1	1	2	5	9	test	id-1310_AU12-33_AU14-33_AU22-100_AU6-100	emotion	Geen van allen	0.0	3.9783593010452014
id-1290_AU13-100_AU20-33_AU25-33	1	1	2	5	10	test_extra	id-1290_AU13-100_AU20-33_AU25-33	emotion	Boos	0.13476721914100565	1.1529990050803465
id-1323_AU25-33_AU26-66	1	1	2	5	11	test_extra	id-1323_AU25-33_AU26-66	emotion	Geen van allen	0.0	1.3863054329340228
id-1335_AU43-66_AU5-66	1	1	2	5	12	test	id-1335_AU43-66_AU5-66	emotion	Geen van allen	0.0	0.7945673067642929
id-1291_AU20-33_AU24-100_AU25-33_AU27i-100	1	1	2	5	13	test	id-1291_AU20-33_AU24-100_AU25-33_AU27i-100	emotion	Geen van allen	0.0	2.0448921043989685
id-1285_AU15-100_AU17-33_AU7-66_AU9-33	1	1	2	5	14	train	id-1285_AU15-100_AU17-33_AU7-66_AU9-33	emotion	Boos	0.25364154869366673	3.2366488853040214
id-1297_AU14-66_AU25-100	1	1	2	5	15	test_extra	id-1297_AU14-66_AU25-100	emotion	Blij	0.5599534603839054	0.777991156810458
id-1376_AU16Open-66_AU17-66_AU6-33	1	1	2	5	16	test_extra	id-1376_AU16Open-66_AU17-66_AU6-33	emotion	Blij	0.04439420758332816	0.9447979855303856
id-1307_AU1-66_AU10Open-100_AU6-33	1	1	2	5	17	test_extra	id-1307_AU1-66_AU10Open-100_AU6-33	emotion	Walging	0.2092176271699848	2.0790263436229
id-1366_AU11-66_AU14-66_AU9-33	1	1	2	5	18	test_extra	id-1366_AU11-66_AU14-66_AU9-33	emotion	Walging	0.13775342850467076	1.0781938232921675
id-1361_AU11-100_AU12-33_AU13-33	1	1	2	5	19	train	id-1361_AU11-100_AU12-33_AU13-33	emotion	Geen van allen	0.0	2.8533040612983323
id-1291_AU15-100_AU22-66	1	1	2	5	20	test_extra	id-1291_AU15-100_AU22-66	emotion	Verdrietig	0.022095944625667926	1.5447257814466866
id-1260_AU22-100_AU25-100_AU26-100	1	1	2	5	21	test	id-1260_AU22-100_AU25-100_AU26-100	emotion	Verrassing	0.41720388637417066	1.8950239553341817
id-1264_AU10Open-33_AU25-66_AU4-66	1	1	2	5	22	test	id-1264_AU10Open-33_AU25-66_AU4-66	emotion	Geen van allen	0.0	1.553177160809355
id-1373_AU12-66_AU15-66_AU16Open-33	1	1	2	5	23	train	id-1373_AU12-66_AU15-66_AU16Open-33	emotion	Geen van allen	0.0	4.395087043350942
id-1339_AU17-100_AU2-33_AU22-33_AU25-33	1	1	2	5	24	test_extra	id-1339_AU17-100_AU2-33_AU22-33_AU25-33	emotion	Blij	0.4296382053053334	0.5947455228651961
id-1342_AU1-100_AU27i-33	1	1	2	5	25	train	id-1342_AU1-100_AU27i-33	emotion	Boos	0.476165264208349	1.069692033885076
id-1360_AU13-100_AU2-66_AU24-33	1	1	2	5	26	train	id-1360_AU13-100_AU2-66_AU24-33	emotion	Verdrietig	0.2970403872649419	5.5621426018587945
id-1355_AU15-100_AU17-66	1	1	2	5	27	train	id-1355_AU15-100_AU17-66	emotion	Verdrietig	0.397976980442543	1.5864248473808402
id-1302_AU1-33_AU14-100_AU27i-100_AU9-100	1	1	2	5	28	train	id-1302_AU1-33_AU14-100_AU27i-100_AU9-100	emotion	Geen van allen	0.0	1.3197979855303856
id-1344_AU12-66_AU20-33	1	1	2	5	29	train	id-1344_AU12-66_AU20-33	emotion	Geen van allen	0.0	4.070036754052127
id-1335_AU12-100_AU20-100_AU5-33	1	1	2	5	30	test_extra	id-1335_AU12-100_AU20-100_AU5-33	emotion	Geen van allen	0.0	1.4948599868639576
id-1291_AU4-100_AU43-33_AU7-66	1	1	2	5	31	test	id-1291_AU4-100_AU43-33_AU7-66	emotion	Geen van allen	0.0	3.5533905733827855
id-1293_AU1-33_AU22-33_AU27i-100	1	1	2	5	32	test_extra	id-1293_AU1-33_AU22-33_AU27i-100	emotion	Verrassing	0.4066155256283919	4.186827463632653
id-1295_AU11-66_AU24-66_AU43-100_AU6-33	1	1	2	5	33	test_extra	id-1295_AU11-66_AU24-66_AU43-100_AU6-33	emotion	Walging	0.6082629764684775	0.9529293969626452
id-1356_AU13-100_AU15-33_AU16Open-100	1	1	2	5	34	test_extra	id-1356_AU13-100_AU15-33_AU16Open-100	emotion	Blij	0.09161511031166596	1.9532789468357803
id-1306_AU12-100_AU26-66_AU4-100_AU5-66	1	1	2	5	35	test_extra	id-1306_AU12-100_AU26-66_AU4-100_AU5-66	emotion	Geen van allen	0.0	1.2530239988027458
id-1363_AU13-100_AU20-66_AU22-66_AU5-66	1	1	2	5	36	train	id-1363_AU13-100_AU20-66_AU22-66_AU5-66	emotion	Blij	0.17702084222338113	1.086346968393627
id-1376_AU10Open-100_AU11-66_AU13-100_AU6-100	1	1	2	6	1	test_extra	id-1376_AU10Open-100_AU11-66_AU13-100_AU6-100	emotion	Geen van allen	0.0	3.1367014687129995
id-1366_AU15-100_AU16Open-33_AU27i-33	1	1	2	6	2	train	id-1366_AU15-100_AU16Open-33_AU27i-33	emotion	Verrassing	0.6576804306640996	1.2031687691978732
id-1315_AU14-100_AU26-66	1	1	2	6	3	train	id-1315_AU14-100_AU26-66	emotion	Verrassing	0.3364217793442715	1.5954388873324206
id-1376_AU1-100_AU13-33_AU14-33_AU27i-66	1	1	2	6	4	test	id-1376_AU1-100_AU13-33_AU14-33_AU27i-66	emotion	Verrassing	0.7877364890646495	1.2698585379512224
id-1309_AU2-33_AU26-66_AU4-100_AU5-100	1	1	2	6	5	train	id-1309_AU2-33_AU26-66_AU4-100_AU5-100	emotion	Verrassing	0.17040630612651916	1.5115137139473518
id-1296_AU1-66_AU11-33	1	1	2	6	6	test_extra	id-1296_AU1-66_AU11-33	emotion	Walging	0.06858134444264086	0.9468252540427784
id-1370_AU2-33_AU27i-66	1	1	2	6	7	test_extra	id-1370_AU2-33_AU27i-66	emotion	Blij	0.4621594263161874	1.1696868419512612
id-1279_AU22-66_AU25-66_AU5-66	1	1	2	6	8	test_extra	id-1279_AU22-66_AU25-66_AU5-66	emotion	Blij	0.046384944827618124	0.6364956025536229
id-1335_AU11-100_AU16Open-100_AU5-33	1	1	2	6	9	test_extra	id-1335_AU11-100_AU16Open-100_AU5-33	emotion	Geen van allen	0.0	1.1447661698512093
id-1358_AU1-33_AU4-33_AU9-33	1	1	2	6	10	test_extra	id-1358_AU1-33_AU4-33_AU9-33	emotion	Boos	0.11556613849582945	1.3799585973574722
id-1273_AU12-100_AU16Open-33_AU20-100_AU22-66_AU5-66	1	1	2	6	11	test	id-1273_AU12-100_AU16Open-33_AU20-100_AU22-66_AU5-66	emotion	Blij	0.8072671294417523	0.7864147653726832
id-1373_AU1-100_AU13-33_AU27i-33_AU6-33	1	1	2	6	12	test_extra	id-1373_AU1-100_AU13-33_AU27i-33_AU6-33	emotion	Geen van allen	0.0	4.414335227382253
id-1342_AU1-100_AU14-100_AU15-66_AU5-100_AU7-100	1	1	2	6	13	test	id-1342_AU1-100_AU14-100_AU15-66_AU5-100_AU7-100	emotion	Blij	0.3740438139898032	1.0043585065595837
id-1358_AU10Open-33_AU22-100_AU6-100	1	1	2	6	14	test_extra	id-1358_AU10Open-33_AU22-100_AU6-100	emotion	Walging	0.5835025041119583	1.0782822672572363
id-1289_AU17-33_AU26-66	1	1	2	6	15	test	id-1289_AU17-33_AU26-66	emotion	Geen van allen	0.0	1.0030575048767787
id-1355_AU13-33_AU15-100_AU2-100_AU20-66_AU4-33	1	1	2	6	16	test_extra	id-1355_AU13-33_AU15-100_AU2-100_AU20-66_AU4-33	emotion	Bang	0.545443277397386	4.511798968374934
id-1264_AU14-33_AU20-100_AU22-66_AU6-100	1	1	2	6	17	test_extra	id-1264_AU14-33_AU20-100_AU22-66_AU6-100	emotion	Blij	0.5010148549517922	1.0963495885080192
id-1354_AU16Open-66_AU27i-33_AU5-100	1	1	2	6	18	test_extra	id-1354_AU16Open-66_AU27i-33_AU5-100	emotion	Bang	0.6107686981684046	5.095379421594772
id-1354_AU15-33_AU17-66_AU25-100_AU9-33	1	1	2	6	19	test_extra	id-1354_AU15-33_AU17-66_AU25-100_AU9-33	emotion	Walging	0.2550024297731406	2.2865170947407023
id-1280_AU12-100_AU14-33_AU27i-66_AU4-66	1	1	2	6	20	test_extra	id-1280_AU12-100_AU14-33_AU27i-66_AU4-66	emotion	Blij	0.5215632364241141	1.5280536411137289
id-1339_AU10Open-100_AU12-33_AU20-100_AU27i-33	1	1	2	6	21	test	id-1339_AU10Open-100_AU12-33_AU20-100_AU27i-33	emotion	Blij	0.6127249195477211	0.9447554237594886
id-1270_AU22-66_AU26-100	1	1	2	6	22	train	id-1270_AU22-66_AU26-100	emotion	Geen van allen	0.0	0.7614186291357328
id-1290_AU11-66_AU16Open-100_AU43-33_AU6-33	1	1	2	6	23	test_extra	id-1290_AU11-66_AU16Open-100_AU43-33_AU6-33	emotion	Geen van allen	0.0	3.1950841455291084
id-1270_AU1-100_AU11-33_AU24-33_AU6-33	1	1	2	6	24	test_extra	id-1270_AU1-100_AU11-33_AU24-33_AU6-33	emotion	Boos	0.2163300296623416	2.3452985240419366
id-1361_AU10Open-66_AU11-66_AU15-100_AU2-100	1	1	2	6	25	train	id-1361_AU10Open-66_AU11-66_AU15-100_AU2-100	emotion	Walging	0.3299570295695869	0.8863670116697904
id-1358_AU2-33_AU4-33_AU9-100	1	1	2	6	26	train	id-1358_AU2-33_AU4-33_AU9-100	emotion	Boos	0.09723561040753974	1.528177402295114
id-1362_AU5-33_AU6-66_AU7-33	1	1	2	6	27	test	id-1362_AU5-33_AU6-66_AU7-33	emotion	Boos	0.08979915845706195	0.7113427424028487
id-1266_AU17-100_AU20-66	1	1	2	6	28	test_extra	id-1266_AU17-100_AU20-66	emotion	Bang	0.12851702395904044	2.703230046074168
id-1358_AU16Open-33_AU17-33_AU2-100	1	1	2	6	29	train	id-1358_AU16Open-33_AU17-33_AU2-100	emotion	Bang	0.06896556248288366	0.8279967109701829
id-1323_AU11-33_AU16Open-33_AU2-33_AU27i-100	1	1	2	6	30	test_extra	id-1323_AU11-33_AU16Open-33_AU2-33_AU27i-100	emotion	Bang	0.5110555173062155	1.253218696268959
id-1260_AU13-66_AU4-100_AU5-33_AU9-100	1	1	2	6	31	train	id-1260_AU13-66_AU4-100_AU5-33_AU9-100	emotion	Walging	0.4844612152043575	2.0531937629202734
id-1280_AU11-33_AU17-66_AU2-66_AU26-66_AU9-66	1	1	2	6	32	test	id-1280_AU11-33_AU17-66_AU2-66_AU26-66_AU9-66	emotion	Boos	0.3574784060845429	0.90307839335037
id-1291_AU1-100_AU16Open-100_AU6-33	1	1	2	6	33	train	id-1291_AU1-100_AU16Open-100_AU6-33	emotion	Geen van allen	0.0	2.8949696211584524
id-1264_AU14-66_AU15-66_AU20-66_AU6-33	1	1	2	6	34	train	id-1264_AU14-66_AU15-66_AU20-66_AU6-33	emotion	Geen van allen	0.0	1.9029368226347287
id-1264_AU10Open-33_AU12-66	1	1	2	6	35	test_extra	id-1264_AU10Open-33_AU12-66	emotion	Walging	0.3577851367045572	1.369754035218648
id-1291_AU10Open-66_AU13-33_AU4-33_AU6-100	1	1	2	6	36	test_extra	id-1291_AU10Open-66_AU13-33_AU4-33_AU6-100	emotion	Walging	0.34195546668655336	0.9364069774746896
id-1269_AU17-33_AU24-33_AU6-66	1	1	2	7	1	test_extra	id-1269_AU17-33_AU24-33_AU6-66	valence	-0.2255480930556124		4.210733294050442
id-1269_AU17-33_AU24-33_AU6-66	1	1	2	7	1	test_extra	id-1269_AU17-33_AU24-33_AU6-66	arousal	-0.2608749028113107		4.210733294050442
id-1285_AU12-66_AU20-100	1	1	2	7	2	test_extra	id-1285_AU12-66_AU20-100	valence	0.5108800180054835		1.036927015917172
id-1285_AU12-66_AU20-100	1	1	2	7	2	test_extra	id-1285_AU12-66_AU20-100	arousal	0.2717446904284487		1.036927015917172
id-1310_AU13-66	1	1	2	7	3	test_extra	id-1310_AU13-66	valence	-0.22283064615132792		1.6520831723428273
id-1310_AU13-66	1	1	2	7	3	test_extra	id-1310_AU13-66	arousal	-0.7962119429553548		1.6520831723428273
id-1273_AU15-100_AU2-100	1	1	2	7	4	test_extra	id-1273_AU15-100_AU2-100	valence	-0.0054348938085689745		0.8354238910997083
id-1273_AU15-100_AU2-100	1	1	2	7	4	test_extra	id-1273_AU15-100_AU2-100	arousal	-0.42392171706838		0.8354238910997083
id-1341_AU15-66_AU2-100_AU26-33_AU4-66	1	1	2	7	5	train	id-1341_AU15-66_AU2-100_AU26-33_AU4-66	valence	0.4347915046855179		2.5271746348735182
id-1341_AU15-66_AU2-100_AU26-33_AU4-66	1	1	2	7	5	train	id-1341_AU15-66_AU2-100_AU26-33_AU4-66	arousal	0.40761703564267293		2.5271746348735182
id-1366_AU14-33_AU2-100_AU26-100_AU27i-100	1	1	2	7	6	test	id-1366_AU14-33_AU2-100_AU26-100_AU27i-100	valence	0.0054348938085689745		2.2355145084329706
id-1366_AU14-33_AU2-100_AU26-100_AU27i-100	1	1	2	7	6	test	id-1366_AU14-33_AU2-100_AU26-100_AU27i-100	arousal	0.8342561996153375		2.2355145084329706
id-1269_AU11-100_AU25-33_AU43-66	1	1	2	7	7	train	id-1269_AU11-100_AU25-33_AU43-66	valence	-0.0842408540328191		1.4353761373949965
id-1269_AU11-100_AU25-33_AU43-66	1	1	2	7	7	train	id-1269_AU11-100_AU25-33_AU43-66	arousal	-0.8532783279453289		1.4353761373949965
id-1380_AU10Open-33_AU13-33_AU16Open-100_AU22-33_AU43-66	1	1	2	7	8	test	id-1380_AU10Open-33_AU13-33_AU16Open-100_AU22-33_AU43-66	valence	-0.0027174469042844872		3.2938842054154516
id-1380_AU10Open-33_AU13-33_AU16Open-100_AU22-33_AU43-66	1	1	2	7	8	test	id-1380_AU10Open-33_AU13-33_AU16Open-100_AU22-33_AU43-66	arousal	0.00815234071285346		3.2938842054154516
id-1370_AU10Open-100_AU2-33_AU27i-66_AU5-66	1	1	2	7	9	test	id-1370_AU10Open-100_AU2-33_AU27i-66_AU5-66	valence	-0.1630468142570692		1.9606940527010008
id-1370_AU10Open-100_AU2-33_AU27i-66_AU5-66	1	1	2	7	9	test	id-1370_AU10Open-100_AU2-33_AU27i-66_AU5-66	arousal	0.4701183144412162		1.9606940527010008
id-1378_AU25-33_AU4-66_AU43-33_AU7-33	1	1	2	7	10	train	id-1378_AU25-33_AU4-66_AU43-33_AU7-33	valence	0.0027174469042844872		3.1272874688474985
id-1378_AU25-33_AU4-66_AU43-33_AU7-33	1	1	2	7	10	train	id-1378_AU25-33_AU4-66_AU43-33_AU7-33	arousal	-0.3994646949298196		3.1272874688474985
id-1294_AU13-33	1	1	2	7	11	test_extra	id-1294_AU13-33	valence	0.30707150018414703		1.210537087301418
id-1294_AU13-33	1	1	2	7	11	test_extra	id-1294_AU13-33	arousal	-0.8723004562753204		1.210537087301418
id-1269_AU11-100_AU13-33_AU25-100	1	1	2	7	12	test_extra	id-1269_AU11-100_AU13-33_AU25-100	valence	-0.0054348938085689745		1.893726274074652
id-1269_AU11-100_AU13-33_AU25-100	1	1	2	7	12	test_extra	id-1269_AU11-100_AU13-33_AU25-100	arousal	0.00815234071285346		1.893726274074652
id-1290_AU24-100_AU9-33	1	1	2	7	13	test_extra	id-1290_AU24-100_AU9-33	valence	-0.6087081065597252		2.8856627803652373
id-1290_AU24-100_AU9-33	1	1	2	7	13	test_extra	id-1290_AU24-100_AU9-33	arousal	0.7364281110610958		2.8856627803652373
id-1310_AU13-66_AU14-100_AU4-66_AU9-33	1	1	2	7	14	test_extra	id-1310_AU13-66_AU14-100_AU4-66_AU9-33	valence	-0.6902315136882597		0.9519722098793864
id-1310_AU13-66_AU14-100_AU4-66_AU9-33	1	1	2	7	14	test_extra	id-1310_AU13-66_AU14-100_AU4-66_AU9-33	arousal	0.8097991774767771		0.9519722098793864
id-1309_AU15-33	1	1	2	7	15	test	id-1309_AU15-33	valence	-0.00815234071285346		1.3771283904534355
id-1309_AU15-33	1	1	2	7	15	test	id-1309_AU15-33	arousal	-0.9864332262552687		1.3771283904534355
id-1269_AU13-33_AU15-100	1	1	2	7	16	test_extra	id-1269_AU13-33_AU15-100	valence	0.0		2.252134125727025
id-1269_AU13-33_AU15-100	1	1	2	7	16	test_extra	id-1269_AU13-33_AU15-100	arousal	-0.6005557658468715		2.252134125727025
id-1342_AU12-100_AU20-100_AU6-66	1	1	2	7	17	test_extra	id-1342_AU12-100_AU20-100_AU6-66	valence	0.06521872570282768		2.6189175907493336
id-1342_AU12-100_AU20-100_AU6-66	1	1	2	7	17	test_extra	id-1342_AU12-100_AU20-100_AU6-66	arousal	0.201091070917052		2.6189175907493336
id-1360_AU2-100_AU26-33	1	1	2	7	18	test_extra	id-1360_AU2-100_AU26-33	valence	-0.0027174469042844872		5.844326847844059
id-1360_AU2-100_AU26-33	1	1	2	7	18	test_extra	id-1360_AU2-100_AU26-33	arousal	0.3532680975569833		5.844326847844059
id-1270_AU5-33_AU7-100	1	1	2	7	19	train	id-1270_AU5-33_AU7-100	valence	-0.0054348938085689745		1.3019965998882979
id-1270_AU5-33_AU7-100	1	1	2	7	19	train	id-1270_AU5-33_AU7-100	arousal	-0.9782808855424152		1.3019965998882979
id-1366_AU10Open-66_AU12-33_AU6-100_AU7-33	1	1	2	7	20	train	id-1366_AU10Open-66_AU12-33_AU6-100_AU7-33	valence	0.4429438453983714		2.1440857852121558
id-1366_AU10Open-66_AU12-33_AU6-100_AU7-33	1	1	2	7	20	train	id-1366_AU10Open-66_AU12-33_AU6-100_AU7-33	arousal	0.5652289560911733		2.1440857852121558
id-1285_AU11-33_AU17-33_AU5-100_AU7-33	1	1	2	7	21	train	id-1285_AU11-33_AU17-33_AU5-100_AU7-33	valence	0.17663404877849165		1.8022676670589133
id-1285_AU11-33_AU17-33_AU5-100_AU7-33	1	1	2	7	21	train	id-1285_AU11-33_AU17-33_AU5-100_AU7-33	arousal	-0.6494698101239924		1.8022676670589133
id-1373_AU11-33_AU13-100_AU16Open-66_AU43-33	1	1	2	7	22	test	id-1373_AU11-33_AU13-100_AU16Open-66_AU43-33	valence	-0.013587234521422437		1.277107924579468
id-1373_AU11-33_AU13-100_AU16Open-66_AU43-33	1	1	2	7	22	test	id-1373_AU11-33_AU13-100_AU16Open-66_AU43-33	arousal	-0.6684919384539837		1.277107924579468
id-1293_AU10Open-66_AU26-100_AU27i-66_AU6-100	1	1	2	7	23	test_extra	id-1293_AU10Open-66_AU26-100_AU27i-66_AU6-100	valence	-0.5271846994311905		1.9771485544697496
id-1293_AU10Open-66_AU26-100_AU27i-66_AU6-100	1	1	2	7	23	test_extra	id-1293_AU10Open-66_AU26-100_AU27i-66_AU6-100	arousal	0.9184970536481566		1.9771485544697496
id-1296_AU17-66_AU26-66_AU4-66	1	1	2	7	24	test_extra	id-1296_AU17-66_AU26-66_AU4-66	valence	-0.2717446904284487		0.6435490842886793
id-1296_AU17-66_AU26-66_AU4-66	1	1	2	7	24	test_extra	id-1296_AU17-66_AU26-66_AU4-66	arousal	-0.09511064164995704		0.6435490842886793
id-1362_AU11-33_AU13-66_AU17-33_AU2-100_AU22-33	1	1	2	7	25	test_extra	id-1362_AU11-33_AU13-66_AU17-33_AU2-100_AU22-33	valence	0.0		1.1772568002252228
id-1362_AU11-33_AU13-66_AU17-33_AU2-100_AU22-33	1	1	2	7	25	test_extra	id-1362_AU11-33_AU13-66_AU17-33_AU2-100_AU22-33	arousal	-0.5000102303883456		1.1772568002252228
id-1270_AU13-100_AU17-100_AU25-100	1	1	2	7	26	test_extra	id-1270_AU13-100_AU17-100_AU25-100	valence	0.0		2.6439792298551765
id-1270_AU13-100_AU17-100_AU25-100	1	1	2	7	26	test_extra	id-1270_AU13-100_AU17-100_AU25-100	arousal	0.0		2.6439792298551765
id-1344_AU13-66_AU14-66_AU24-33_AU9-33	1	1	2	7	27	test	id-1344_AU13-66_AU14-66_AU24-33_AU9-33	valence	-0.4103344825469576		1.0186704306161118
id-1344_AU13-66_AU14-66_AU24-33_AU9-33	1	1	2	7	27	test	id-1344_AU13-66_AU14-66_AU24-33_AU9-33	arousal	0.38044256659982817		1.0186704306161118
id-1307_AU11-66_AU20-33_AU7-100_AU9-66	1	1	2	7	28	test_extra	id-1307_AU11-66_AU20-33_AU7-100_AU9-66	valence	0.0		2.6189550209619483
id-1307_AU11-66_AU20-33_AU7-100_AU9-66	1	1	2	7	28	test_extra	id-1307_AU11-66_AU20-33_AU7-100_AU9-66	arousal	0.0		2.6189550209619483
id-1269_AU16Open-66_AU5-100	1	1	2	7	29	test_extra	id-1269_AU16Open-66_AU5-100	valence	-0.00815234071285346		3.6191177216351207
id-1269_AU16Open-66_AU5-100	1	1	2	7	29	test_extra	id-1269_AU16Open-66_AU5-100	arousal	-0.2092434116299055		3.6191177216351207
id-1378_AU26-66_AU4-33_AU43-66	1	1	2	7	30	test_extra	id-1378_AU26-66_AU4-33_AU43-66	valence	0.0		2.2105361817320954
id-1378_AU26-66_AU4-33_AU43-66	1	1	2	7	30	test_extra	id-1378_AU26-66_AU4-33_AU43-66	arousal	-0.5190323587183371		2.2105361817320954
id-1367_AU24-33_AU4-66_AU43-33	1	1	2	7	31	train	id-1367_AU24-33_AU4-66_AU43-33	valence	-0.04619659737283628		3.0105990886349905
id-1367_AU24-33_AU4-66_AU43-33	1	1	2	7	31	train	id-1367_AU24-33_AU4-66_AU43-33	arousal	-0.3532680975569833		3.0105990886349905
id-1345_AU12-33_AU27i-66_AU7-100_AU9-66	1	1	2	7	32	train	id-1345_AU12-33_AU27i-66_AU7-100_AU9-66	valence	-0.3777251196955437		1.8936963902797288
id-1345_AU12-33_AU27i-66_AU7-100_AU9-66	1	1	2	7	32	train	id-1345_AU12-33_AU27i-66_AU7-100_AU9-66	arousal	0.7826247084339323		1.8936963902797288
id-1373_AU10Open-100_AU17-66_AU24-33_AU43-100_AU9-66	1	1	2	7	33	test_extra	id-1373_AU10Open-100_AU17-66_AU24-33_AU43-100_AU9-66	valence	-0.5081625711011989		1.468786524639654
id-1373_AU10Open-100_AU17-66_AU24-33_AU43-100_AU9-66	1	1	2	7	33	test_extra	id-1373_AU10Open-100_AU17-66_AU24-33_AU43-100_AU9-66	arousal	0.2418527744813193		1.468786524639654
id-1373_AU6-66_AU7-66	1	1	2	7	34	test_extra	id-1373_AU6-66_AU7-66	valence	-0.01630468142570692		1.5103859779192137
id-1373_AU6-66_AU7-66	1	1	2	7	34	test_extra	id-1373_AU6-66_AU7-66	arousal	-0.3587029913655523		1.5103859779192137
id-1297_AU10Open-66_AU5-66_AU9-100	1	1	2	7	35	test_extra	id-1297_AU10Open-66_AU5-66_AU9-100	valence	-0.8994749253181652		0.9768732613065368
id-1297_AU10Open-66_AU5-66_AU9-100	1	1	2	7	35	test_extra	id-1297_AU10Open-66_AU5-66_AU9-100	arousal	0.9103447129353032		0.9768732613065368
id-1360_AU1-100_AU11-66	1	1	2	7	36	test	id-1360_AU1-100_AU11-66	valence	-0.20652596472562101		1.085365632787216
id-1360_AU1-100_AU11-66	1	1	2	7	36	test	id-1360_AU1-100_AU11-66	arousal	-0.3369634161312764		1.085365632787216
id-1307_AU1-33_AU10Open-100_AU4-66_AU9-33	1	1	2	8	1	test_extra	id-1307_AU1-33_AU10Open-100_AU4-66_AU9-33	emotion	Walging	0.5671386267558233	4.170077142456647
id-1266_AU17-33_AU24-33_AU26-66	1	1	2	8	2	test_extra	id-1266_AU17-33_AU24-33_AU26-66	emotion	Geen van allen	0.0	0.9698505689393642
id-1302_AU13-66_AU22-33	1	1	2	8	3	test_extra	id-1302_AU13-66_AU22-33	emotion	Geen van allen	0.0	1.0779909756984123
id-1366_AU15-66_AU22-66_AU24-33_AU5-100	1	1	2	8	4	test_extra	id-1366_AU15-66_AU22-66_AU24-33_AU5-100	emotion	Bang	0.08571029662580514	3.044941608870431
id-1260_AU12-66_AU20-100_AU22-66_AU43-66	1	1	2	8	5	train	id-1260_AU12-66_AU20-100_AU22-66_AU43-66	emotion	Blij	0.1408577413348611	0.6446357678269123
id-1342_AU10Open-66_AU25-66_AU26-33_AU5-100	1	1	2	8	6	train	id-1342_AU10Open-66_AU25-66_AU26-33_AU5-100	emotion	Boos	0.6300012738634703	0.7362911853051628
id-1296_AU1-66_AU17-100_AU27i-33_AU4-66_AU5-100	1	1	2	8	7	test	id-1296_AU1-66_AU17-100_AU27i-33_AU4-66_AU5-100	emotion	Geen van allen	0.0	7.653823073431339
id-1270_AU26-100	1	1	2	8	8	train	id-1270_AU26-100	emotion	Geen van allen	0.0	0.7946216409418412
id-1273_AU1-33_AU13-33_AU26-33	1	1	2	8	9	test	id-1273_AU1-33_AU13-33_AU26-33	emotion	Blij	0.509994285607974	0.9030693376553244
id-1367_AU11-33_AU13-33_AU14-66_AU5-33	1	1	2	8	10	test_extra	id-1367_AU11-33_AU13-33_AU14-66_AU5-33	emotion	Geen van allen	0.0	1.2364469432795886
id-1295_AU11-33_AU12-100_AU13-100_AU20-33_AU9-66	1	1	2	8	11	test	id-1295_AU11-33_AU12-100_AU13-100_AU20-33_AU9-66	emotion	Boos	0.7876575007072805	1.0779876552751375
id-1274_AU2-66_AU5-33_AU6-66	1	1	2	8	12	train	id-1274_AU2-66_AU5-33_AU6-66	emotion	Boos	0.10555956650735604	1.669675673259917
id-1376_AU10Open-100_AU11-100_AU16Open-66_AU22-33	1	1	2	8	13	test_extra	id-1376_AU10Open-100_AU11-100_AU16Open-66_AU22-33	emotion	Boos	0.3725266999419902	0.6113271062331478
id-1289_AU14-33_AU25-100_AU27i-66_AU7-33	1	1	2	8	14	test_extra	id-1289_AU14-33_AU25-100_AU27i-66_AU7-33	emotion	Verrassing	0.6101478776013759	0.7780968065981142
id-1362_AU17-33_AU5-33	1	1	2	8	15	test_extra	id-1362_AU17-33_AU5-33	emotion	Bang	0.3113109668693976	0.8364185083937627
id-1358_AU11-100_AU12-100_AU14-100_AU16Open-66_AU6-100	1	1	2	8	16	test	id-1358_AU11-100_AU12-100_AU14-100_AU16Open-66_AU6-100	emotion	Blij	0.6128087400009042	0.9445066939697426
id-1269_AU12-33_AU17-66_AU9-100	1	1	2	8	17	test_extra	id-1269_AU12-33_AU17-66_AU9-100	emotion	Blij	0.5282776917109522	0.8945892819192522
id-1360_AU14-33_AU5-66	1	1	2	8	18	test_extra	id-1360_AU14-33_AU5-66	emotion	Blij	0.04079181178141792	0.5948170628635125
id-1315_AU11-33_AU2-66_AU26-33	1	1	2	8	19	train	id-1315_AU11-33_AU2-66_AU26-33	emotion	Geen van allen	0.0	0.7613932731874229
id-1323_AU12-33_AU20-100_AU25-33_AU4-33	1	1	2	8	20	test_extra	id-1323_AU12-33_AU20-100_AU25-33_AU4-33	emotion	Bang	0.25301933041711355	1.1780829815688776
id-1367_AU25-66_AU4-66_AU6-33	1	1	2	8	21	test	id-1367_AU25-66_AU4-66_AU6-33	emotion	Geen van allen	0.0	2.003167682514686
id-1269_AU1-66_AU16Open-33_AU20-66	1	1	2	8	22	test_extra	id-1269_AU1-66_AU16Open-33_AU20-66	emotion	Bang	0.11549490356153926	1.0615579057430296
id-1296_AU12-100_AU14-66_AU17-100	1	1	2	8	23	train	id-1296_AU12-100_AU14-66_AU17-100	emotion	Blij	0.3819512865915058	0.7364264170355455
id-1309_AU12-66_AU16Open-33_AU2-33_AU24-100_AU26-100	1	1	2	8	24	test_extra	id-1309_AU12-66_AU16Open-33_AU2-33_AU24-100_AU26-100	emotion	Blij	0.5429405948993692	0.8696713265271683
id-1373_AU7-66	1	1	2	8	25	test_extra	id-1373_AU7-66	emotion	Verdrietig	0.15529218205161502	1.1614558178625884
id-1323_AU12-66_AU16Open-33_AU7-66_AU9-100	1	1	2	8	26	test	id-1323_AU12-66_AU16Open-33_AU7-66_AU9-100	emotion	Geen van allen	0.0	0.8114459169664769
id-1378_AU1-66_AU20-66_AU7-33	1	1	2	8	27	test	id-1378_AU1-66_AU20-66_AU7-33	emotion	Geen van allen	0.0	1.88641772356641
id-1306_AU15-66_AU27i-66_AU43-33	1	1	2	8	28	test_extra	id-1306_AU15-66_AU27i-66_AU43-33	emotion	Geen van allen	0.0	0.9446310588646156
id-1309_AU10Open-100_AU2-100_AU27i-33	1	1	2	8	29	test_extra	id-1309_AU10Open-100_AU2-100_AU27i-33	emotion	Verrassing	0.6339028305579432	0.8614246058950812
id-1377_AU1-100_AU13-33_AU26-33_AU9-33	1	1	2	8	30	test_extra	id-1377_AU1-100_AU13-33_AU26-33_AU9-33	emotion	Boos	0.4792848415574221	1.828161826497308
id-1289_AU20-33_AU26-66_AU9-66	1	1	2	8	31	test_extra	id-1289_AU20-33_AU26-66_AU9-66	emotion	Geen van allen	0.0	1.894812353901216
id-1297_AU2-66_AU22-66	1	1	2	8	32	test_extra	id-1297_AU2-66_AU22-66	emotion	Geen van allen	0.0	0.7612999995162681
id-1370_AU20-33_AU43-100	1	1	2	8	33	train	id-1370_AU20-33_AU43-100	emotion	Geen van allen	0.0	5.278609962715564
id-1306_AU1-66_AU11-100_AU16Open-66_AU24-66	1	1	2	8	34	test_extra	id-1306_AU1-66_AU11-100_AU16Open-66_AU24-66	emotion	Bang	0.4784829924231238	2.10321108948483
id-1354_AU13-66_AU24-100_AU27i-66	1	1	2	8	35	test_extra	id-1354_AU13-66_AU24-100_AU27i-66	emotion	Verdrietig	0.6585273993548749	1.1696578637238415
id-1377_AU24-100_AU26-33_AU43-66	1	1	2	8	36	test_extra	id-1377_AU24-100_AU26-33_AU43-66	emotion	Geen van allen	0.0	0.8445948964508716
id-1294_AU10Open-33_AU7-100	1	1	3	9	1	test_extra	id-1294_AU10Open-33_AU7-100	valence	-0.3369634161312764		3.3442456484353897
id-1294_AU10Open-33_AU7-100	1	1	3	9	1	test_extra	id-1294_AU10Open-33_AU7-100	arousal	0.3750076727912592		3.3442456484353897
id-1356_AU12-33_AU43-33	1	1	3	9	2	train	id-1356_AU12-33_AU43-33	valence	-0.14945957973564675		1.6687574256720836
id-1356_AU12-33_AU43-33	1	1	3	9	2	train	id-1356_AU12-33_AU43-33	arousal	-0.5489242746654663		1.6687574256720836
id-1307_AU13-66_AU14-66_AU43-33	1	1	3	9	3	train	id-1307_AU13-66_AU14-66_AU43-33	valence	-0.00815234071285346		2.2038880933287146
id-1307_AU13-66_AU14-66_AU43-33	1	1	3	9	3	train	id-1307_AU13-66_AU14-66_AU43-33	arousal	0.010869787617137949		2.2038880933287146
id-1370_AU2-33_AU25-66_AU4-100	1	1	3	9	4	test_extra	id-1370_AU2-33_AU25-66_AU4-100	valence	0.1875038363956296		1.3020962125465303
id-1370_AU2-33_AU25-66_AU4-100	1	1	3	9	4	test_extra	id-1370_AU2-33_AU25-66_AU4-100	arousal	-0.8451259872324756		1.3020962125465303
id-1356_AU6-33	1	1	3	9	5	test	id-1356_AU6-33	valence	-0.010869787617137949		1.1270160998210486
id-1356_AU6-33	1	1	3	9	5	test	id-1356_AU6-33	arousal	-0.9646936510209928		1.1270160998210486
id-1363_AU16Open-66_AU4-33_AU6-66_AU9-100	1	1	3	9	6	train	id-1363_AU16Open-66_AU4-33_AU6-66_AU9-100	valence	-0.32337618160985393		2.577209469118316
id-1363_AU16Open-66_AU4-33_AU6-66_AU9-100	1	1	3	9	6	train	id-1363_AU16Open-66_AU4-33_AU6-66_AU9-100	arousal	-0.2554400090027418		2.577209469118316
id-1356_AU12-33_AU15-66_AU16Open-66_AU6-33_AU9-100	1	1	3	9	7	test_extra	id-1356_AU12-33_AU15-66_AU16Open-66_AU6-33_AU9-100	valence	-0.19565617710848307		5.335956366034225
id-1356_AU12-33_AU15-66_AU16Open-66_AU6-33_AU9-100	1	1	3	9	7	test_extra	id-1356_AU12-33_AU15-66_AU16Open-66_AU6-33_AU9-100	arousal	0.4972927834840611		5.335956366034225
id-1355_AU13-66_AU14-100_AU15-100_AU7-33	1	1	3	9	8	test	id-1355_AU13-66_AU14-100_AU15-100_AU7-33	valence	-0.5733812968040267		0.7687800045405311
id-1355_AU13-66_AU14-100_AU15-100_AU7-33	1	1	3	9	8	test	id-1355_AU13-66_AU14-100_AU15-100_AU7-33	arousal	0.6467523632197079		0.7687800045405311
id-1345_AU17-66_AU25-66_AU6-100	1	1	3	9	9	test	id-1345_AU17-66_AU25-66_AU6-100	valence	0.0054348938085689745		5.13588283377976
id-1345_AU17-66_AU25-66_AU6-100	1	1	3	9	9	test	id-1345_AU17-66_AU25-66_AU6-100	arousal	-0.6059906596554406		5.13588283377976
id-1362_AU13-100_AU15-66_AU43-100_AU7-33	1	1	3	9	10	test_extra	id-1362_AU13-100_AU15-66_AU43-100_AU7-33	valence	-0.4266391639726645		0.9268269565127412
id-1362_AU13-100_AU15-66_AU43-100_AU7-33	1	1	3	9	10	test_extra	id-1362_AU13-100_AU15-66_AU43-100_AU7-33	arousal	-0.4674008675369317		0.9268269565127412
id-1360_AU11-33_AU25-100	1	1	3	9	11	test_extra	id-1360_AU11-33_AU25-100	valence	-0.013587234521422437		1.0353803030156996
id-1360_AU11-33_AU25-100	1	1	3	9	11	test_extra	id-1360_AU11-33_AU25-100	arousal	-0.7989293898596391		1.0353803030156996
id-1347_AU17-66_AU26-100_AU27i-100_AU9-33	1	1	3	9	12	test_extra	id-1347_AU17-66_AU26-100_AU27i-100_AU9-33	valence	-0.4157693763555265		2.293954839848084
id-1347_AU17-66_AU26-100_AU27i-100_AU9-33	1	1	3	9	12	test_extra	id-1347_AU17-66_AU26-100_AU27i-100_AU9-33	arousal	0.9891506731595532		2.293954839848084
id-1289_AU10Open-33_AU2-66_AU24-66	1	1	3	9	13	test_extra	id-1289_AU10Open-33_AU2-66_AU24-66	valence	-0.5163149118140525		3.419042076387996
id-1289_AU10Open-33_AU2-66_AU24-66	1	1	3	9	13	test_extra	id-1289_AU10Open-33_AU2-66_AU24-66	arousal	0.6195778941768629		3.419042076387996
id-1363_AU1-33_AU15-100_AU2-66_AU22-66_AU5-100	1	1	3	9	14	test	id-1363_AU1-33_AU15-100_AU2-66_AU22-66_AU5-100	valence	0.1630468142570692		0.6769030243613088
id-1363_AU1-33_AU15-100_AU2-66_AU22-66_AU5-100	1	1	3	9	14	test	id-1363_AU1-33_AU15-100_AU2-66_AU22-66_AU5-100	arousal	0.06521872570282768		0.6769030243613088
id-1279_AU22-33_AU26-33_AU4-33	1	1	3	9	15	test	id-1279_AU22-33_AU26-33_AU4-33	valence	0.4347915046855179		0.6353618293960608
id-1279_AU22-33_AU26-33_AU4-33	1	1	3	9	15	test	id-1279_AU22-33_AU26-33_AU4-33	arousal	-0.4429438453983714		0.6353618293960608
id-1294_AU13-100_AU2-66_AU6-33	1	1	3	9	16	train	id-1294_AU13-100_AU2-66_AU6-33	valence	0.20652596472562101		0.5853137134636199
id-1294_AU13-100_AU2-66_AU6-33	1	1	3	9	16	train	id-1294_AU13-100_AU2-66_AU6-33	arousal	-0.4266391639726645		0.5853137134636199
id-1294_AU10Open-66_AU27i-66_AU43-33_AU7-66	1	1	3	9	17	train	id-1294_AU10Open-66_AU27i-66_AU43-33_AU7-66	valence	-0.2418527744813193		3.3023600351607456
id-1294_AU10Open-66_AU27i-66_AU43-33_AU7-66	1	1	3	9	17	train	id-1294_AU10Open-66_AU27i-66_AU43-33_AU7-66	arousal	-0.30163660637557804		3.3023600351607456
id-1260_AU14-100_AU17-33_AU2-66_AU27i-100	1	1	3	9	18	test_extra	id-1260_AU14-100_AU17-33_AU2-66_AU27i-100	valence	-0.0815234071285346		1.5853583882308158
id-1260_AU14-100_AU17-33_AU2-66_AU27i-100	1	1	3	9	18	test_extra	id-1260_AU14-100_AU17-33_AU2-66_AU27i-100	arousal	0.6087081065597252		1.5853583882308158
id-1307_AU16Open-100_AU22-100_AU6-100_AU7-33	1	1	3	9	19	test_extra	id-1307_AU16Open-100_AU22-100_AU6-100_AU7-33	valence	-0.17663404877849165		1.0697889298335213
id-1307_AU16Open-100_AU22-100_AU6-100_AU7-33	1	1	3	9	19	test_extra	id-1307_AU16Open-100_AU22-100_AU6-100_AU7-33	arousal	-0.21467830543847446		1.0697889298335213
id-1344_AU12-66_AU22-66_AU26-100_AU27i-33	1	1	3	9	20	train	id-1344_AU12-66_AU22-66_AU26-100_AU27i-33	valence	0.0		1.9271294167647284
id-1344_AU12-66_AU22-66_AU26-100_AU27i-33	1	1	3	9	20	train	id-1344_AU12-66_AU22-66_AU26-100_AU27i-33	arousal	0.21739575234275896		1.9271294167647284
id-1280_AU7-66	1	1	3	9	21	train	id-1280_AU7-66	valence	0.0		1.5521149276519282
id-1280_AU7-66	1	1	3	9	21	train	id-1280_AU7-66	arousal	-0.9049098191267342		1.5521149276519282
id-1377_AU17-66_AU24-33_AU4-100	1	1	3	9	22	test	id-1377_AU17-66_AU24-33_AU4-100	valence	-0.4375089515898024		1.202033184899847
id-1377_AU17-66_AU24-33_AU4-100	1	1	3	9	22	test	id-1377_AU17-66_AU24-33_AU4-100	arousal	-0.1711991549699227		1.202033184899847
id-1285_AU1-66_AU12-100_AU14-66_AU16Open-33_AU24-66	1	1	3	9	23	test_extra	id-1285_AU1-66_AU12-100_AU14-66_AU16Open-33_AU24-66	valence	0.4646834206326473		0.6019508384360961
id-1285_AU1-66_AU12-100_AU14-66_AU16Open-33_AU24-66	1	1	3	9	23	test_extra	id-1285_AU1-66_AU12-100_AU14-66_AU16Open-33_AU24-66	arousal	-0.010869787617137949		0.6019508384360961
id-1293_AU22-100_AU24-33	1	1	3	9	24	train	id-1293_AU22-100_AU24-33	valence	-0.3260936285141384		0.8854146542907984
id-1293_AU22-100_AU24-33	1	1	3	9	24	train	id-1293_AU22-100_AU24-33	arousal	0.14674213283136228		0.8854146542907984
id-1355_AU26-33_AU7-100	1	1	3	9	25	train	id-1355_AU26-33_AU7-100	valence	-0.201091070917052		1.2104169483991427
id-1355_AU26-33_AU7-100	1	1	3	9	25	train	id-1355_AU26-33_AU7-100	arousal	0.4945753365797766		1.2104169483991427
id-1354_AU16Open-33_AU20-33_AU25-100_AU7-66	1	1	3	9	26	test_extra	id-1354_AU16Open-33_AU20-33_AU25-100_AU7-66	valence	-0.2282655399598969		0.7853845290064783
id-1354_AU16Open-33_AU20-33_AU25-100_AU7-66	1	1	3	9	26	test_extra	id-1354_AU16Open-33_AU20-33_AU25-100_AU7-66	arousal	-0.2663097966198797		0.7853845290064783
id-1347_AU13-100_AU14-66_AU17-100_AU27i-66_AU7-100	1	1	3	9	27	test	id-1347_AU13-100_AU14-66_AU17-100_AU27i-66_AU7-100	valence	0.0		0.7271512711777177
id-1347_AU13-100_AU14-66_AU17-100_AU27i-66_AU7-100	1	1	3	9	27	test	id-1347_AU13-100_AU14-66_AU17-100_AU27i-66_AU7-100	arousal	0.0		0.7271512711777177
id-1376_AU1-33_AU5-100_AU7-66	1	1	3	9	28	train	id-1376_AU1-33_AU5-100_AU7-66	valence	0.4755532082497852		0.7019821711455734
id-1376_AU1-33_AU5-100_AU7-66	1	1	3	9	28	train	id-1376_AU1-33_AU5-100_AU7-66	arousal	-0.915779606743872		0.7019821711455734
id-1366_AU20-100_AU22-66_AU4-100	1	1	3	9	29	test_extra	id-1366_AU20-100_AU22-66_AU4-100	valence	-0.20380851782133647		0.9604066852771213
id-1366_AU20-100_AU22-66_AU4-100	1	1	3	9	29	test_extra	id-1366_AU20-100_AU22-66_AU4-100	arousal	-0.3043540532798626		0.9604066852771213
id-1354_AU12-66_AU15-66_AU2-66_AU5-66_AU9-66	1	1	3	9	30	test_extra	id-1354_AU12-66_AU15-66_AU2-66_AU5-66_AU9-66	valence	-0.5217498056226214		2.9605748193680483
id-1354_AU12-66_AU15-66_AU2-66_AU5-66_AU9-66	1	1	3	9	30	test_extra	id-1354_AU12-66_AU15-66_AU2-66_AU5-66_AU9-66	arousal	0.26359234971559525		2.9605748193680483
id-1370_AU1-33_AU26-66_AU7-100	1	1	3	9	31	test_extra	id-1370_AU1-33_AU26-66_AU7-100	valence	0.6059906596554406		0.6936500251140387
id-1370_AU1-33_AU26-66_AU7-100	1	1	3	9	31	test_extra	id-1370_AU1-33_AU26-66_AU7-100	arousal	0.2581574559070263		0.6936500251140387
id-1279_AU1-33_AU14-33_AU26-33	1	1	3	9	32	train	id-1279_AU1-33_AU14-33_AU26-33	valence	0.5299021463354749		0.8269459483617538
id-1279_AU1-33_AU14-33_AU26-33	1	1	3	9	32	train	id-1279_AU1-33_AU14-33_AU26-33	arousal	0.01630468142570692		0.8269459483617538
id-1373_AU1-33_AU11-100_AU25-33_AU5-33	1	1	3	9	33	test_extra	id-1373_AU1-33_AU11-100_AU25-33_AU5-33	valence	-0.5679464029954577		0.7268623944710271
id-1373_AU1-33_AU11-100_AU25-33_AU5-33	1	1	3	9	33	test_extra	id-1373_AU1-33_AU11-100_AU25-33_AU5-33	arousal	-0.8559957748496133		0.7268623944710271
id-1341_AU14-100_AU15-100_AU24-100_AU6-100	1	1	3	9	34	train	id-1341_AU14-100_AU15-100_AU24-100_AU6-100	valence	0.0027174469042844872		3.294061093349228
id-1341_AU14-100_AU15-100_AU24-100_AU6-100	1	1	3	9	34	train	id-1341_AU14-100_AU15-100_AU24-100_AU6-100	arousal	0.0027174469042844872		3.294061093349228
id-1335_AU24-100_AU25-100_AU27i-66	1	1	3	9	35	train	id-1335_AU24-100_AU25-100_AU27i-66	valence	0.0		3.6032717626494564
id-1335_AU24-100_AU25-100_AU27i-66	1	1	3	9	35	train	id-1335_AU24-100_AU25-100_AU27i-66	arousal	-0.3478332037484143		3.6032717626494564
id-1266_AU14-66_AU16Open-66_AU27i-33_AU43-66	1	1	3	9	36	test_extra	id-1266_AU14-66_AU16Open-66_AU27i-33_AU43-66	valence	-0.0027174469042844872		1.4187239195962318
id-1266_AU14-66_AU16Open-66_AU27i-33_AU43-66	1	1	3	9	36	test_extra	id-1266_AU14-66_AU16Open-66_AU27i-33_AU43-66	arousal	0.0054348938085689745		1.4187239195962318
id-1344_AU13-100_AU17-100_AU9-66	1	1	3	10	1	train	id-1344_AU13-100_AU17-100_AU9-66	valence	-0.6114255534640095		1.8187925014008213
id-1344_AU13-100_AU17-100_AU9-66	1	1	3	10	1	train	id-1344_AU13-100_AU17-100_AU9-66	arousal	0.948388969595286		1.8187925014008213
id-1345_AU12-66	1	1	3	10	2	train	id-1345_AU12-66	valence	0.6983838544011131		1.0436406071912645
id-1345_AU12-66	1	1	3	10	2	train	id-1345_AU12-66	arousal	-0.10869787617137948		1.0436406071912645
id-1361_AU16Open-33_AU24-66_AU25-100	1	1	3	10	3	test_extra	id-1361_AU16Open-33_AU24-66_AU25-100	valence	-0.3097889470884315		2.8271829057430296
id-1361_AU16Open-33_AU24-66_AU25-100	1	1	3	10	3	test_extra	id-1361_AU16Open-33_AU24-66_AU25-100	arousal	-0.5896859782297337		2.8271829057430296
id-1370_AU20-33_AU26-100	1	1	3	10	4	test_extra	id-1370_AU20-33_AU26-100	valence	0.0		0.8935448582960817
id-1370_AU20-33_AU26-100	1	1	3	10	4	test_extra	id-1370_AU20-33_AU26-100	arousal	-0.40761703564267293		0.8935448582960817
id-1306_AU43-100_AU9-33	1	1	3	10	5	test_extra	id-1306_AU43-100_AU9-33	valence	-0.3913123542169661		3.7356811332429065
id-1306_AU43-100_AU9-33	1	1	3	10	5	test_extra	id-1306_AU43-100_AU9-33	arousal	0.01902212832999141		3.7356811332429065
id-1311_AU16Open-100_AU43-100_AU6-66_AU9-100	1	1	3	10	6	test	id-1311_AU16Open-100_AU43-100_AU6-66_AU9-100	valence	-0.4483787392069404		1.2187454721515678
id-1311_AU16Open-100_AU43-100_AU6-66_AU9-100	1	1	3	10	6	test	id-1311_AU16Open-100_AU43-100_AU6-66_AU9-100	arousal	0.4809881020583541		1.2187454721515678
id-1285_AU10Open-66_AU17-100_AU9-66	1	1	3	10	7	test_extra	id-1285_AU10Open-66_AU17-100_AU9-66	valence	-0.2717446904284487		0.926894270522098
id-1285_AU10Open-66_AU17-100_AU9-66	1	1	3	10	7	test_extra	id-1285_AU10Open-66_AU17-100_AU9-66	arousal	-0.14945957973564675		0.926894270522098
id-1358_AU15-66_AU2-33_AU26-66	1	1	3	10	8	train	id-1358_AU15-66_AU2-33_AU26-66	valence	-0.010869787617137949		2.668899600101213
id-1358_AU15-66_AU2-33_AU26-66	1	1	3	10	8	train	id-1358_AU15-66_AU2-33_AU26-66	arousal	-0.00815234071285346		2.668899600101213
id-1361_AU10Open-33_AU11-100_AU13-66_AU2-100	1	1	3	10	9	train	id-1361_AU10Open-33_AU11-100_AU13-66_AU2-100	valence	0.0027174469042844872		2.003658501245809
id-1361_AU10Open-33_AU11-100_AU13-66_AU2-100	1	1	3	10	9	train	id-1361_AU10Open-33_AU11-100_AU13-66_AU2-100	arousal	-0.30163660637557804		2.003658501245809
id-1347_AU20-100_AU5-100	1	1	3	10	10	test_extra	id-1347_AU20-100_AU5-100	valence	-0.40761703564267293		0.8187342430883291
id-1347_AU20-100_AU5-100	1	1	3	10	10	test_extra	id-1347_AU20-100_AU5-100	arousal	0.4728357613455008		0.8187342430883291
id-1315_AU27i-66	1	1	3	10	11	test_extra	id-1315_AU27i-66	valence	0.0		0.3853633386788715
id-1315_AU27i-66	1	1	3	10	11	test_extra	id-1315_AU27i-66	arousal	0.0		0.3853633386788715
id-1306_AU1-66_AU27i-33	1	1	3	10	12	test_extra	id-1306_AU1-66_AU27i-33	valence	-0.07880596022425011		0.86867791666009
id-1306_AU1-66_AU27i-33	1	1	3	10	12	test_extra	id-1306_AU1-66_AU27i-33	arousal	-0.19565617710848307		0.86867791666009
id-1260_AU12-66_AU25-33	1	1	3	10	13	test	id-1260_AU12-66_AU25-33	valence	-0.5896859782297337		1.5520687436001026
id-1260_AU12-66_AU25-33	1	1	3	10	13	test	id-1260_AU12-66_AU25-33	arousal	0.3967472480255351		1.5520687436001026
id-1345_AU11-100_AU20-66	1	1	3	10	14	test_extra	id-1345_AU11-100_AU20-66	valence	-0.1847863894913451		2.2522391718030117
id-1345_AU11-100_AU20-66	1	1	3	10	14	test_extra	id-1345_AU11-100_AU20-66	arousal	-0.6032732127511561		2.2522391718030117
id-1302_AU1-33_AU22-100	1	1	3	10	15	test_extra	id-1302_AU1-33_AU22-100	valence	0.0		1.2021611720738292
id-1302_AU1-33_AU22-100	1	1	3	10	15	test_extra	id-1302_AU1-33_AU22-100	arousal	-0.9837157793509842		1.2021611720738292
id-1293_AU22-66_AU25-100_AU5-33_AU9-33	1	1	3	10	16	test	id-1293_AU22-66_AU25-100_AU5-33_AU9-33	valence	-0.5380544870483285		5.5192439580405335
id-1293_AU22-66_AU25-100_AU5-33_AU9-33	1	1	3	10	16	test	id-1293_AU22-66_AU25-100_AU5-33_AU9-33	arousal	-0.20380851782133647		5.5192439580405335
id-1273_AU22-100_AU26-33	1	1	3	10	17	test_extra	id-1273_AU22-100_AU26-33	valence	0.2201131992470434		1.3020826290030527
id-1273_AU22-100_AU26-33	1	1	3	10	17	test_extra	id-1273_AU22-100_AU26-33	arousal	0.11141532307566396		1.3020826290030527
id-1323_AU10Open-33_AU11-33	1	1	3	10	18	train	id-1323_AU10Open-33_AU11-33	valence	-0.5434893808568974		1.6770421802248163
id-1323_AU10Open-33_AU11-33	1	1	3	10	18	train	id-1323_AU10Open-33_AU11-33	arousal	-0.8451259872324756		1.6770421802248163
id-1362_AU17-66_AU27i-100_AU9-100	1	1	3	10	19	train	id-1362_AU17-66_AU27i-100_AU9-100	valence	-0.6983838544011131		1.0186707324719464
id-1362_AU17-66_AU27i-100_AU9-100	1	1	3	10	19	train	id-1362_AU17-66_AU27i-100_AU9-100	arousal	0.6032732127511561		1.0186707324719464
id-1270_AU15-33_AU22-66	1	1	3	10	20	train	id-1270_AU15-33_AU22-66	valence	0.01902212832999141		2.627198723026595
id-1270_AU15-33_AU22-66	1	1	3	10	20	train	id-1270_AU15-33_AU22-66	arousal	-0.9646936510209928		2.627198723026595
id-1373_AU1-66	1	1	3	10	21	train	id-1373_AU1-66	valence	-0.23913532757703485		1.0185708179578796
id-1373_AU1-66	1	1	3	10	21	train	id-1373_AU1-66	arousal	-0.8016468367639237		1.0185708179578796
id-1269_AU12-100_AU2-66_AU20-33_AU43-66	1	1	3	10	22	train	id-1269_AU12-100_AU2-66_AU20-33_AU43-66	valence	0.0027174469042844872		2.6522836050844494
id-1269_AU12-100_AU2-66_AU20-33_AU43-66	1	1	3	10	22	train	id-1269_AU12-100_AU2-66_AU20-33_AU43-66	arousal	0.01902212832999141		2.6522836050844494
id-1354_AU10Open-100_AU17-100_AU27i-33_AU4-33	1	1	3	10	23	train	id-1354_AU10Open-100_AU17-100_AU27i-33_AU4-33	valence	-0.3831600135041127		2.9938557101595507
id-1354_AU10Open-100_AU17-100_AU27i-33_AU4-33	1	1	3	10	23	train	id-1354_AU10Open-100_AU17-100_AU27i-33_AU4-33	arousal	0.402182141834104		2.9938557101595507
id-1306_AU22-66_AU25-33_AU43-33	1	1	3	10	24	test_extra	id-1306_AU22-66_AU25-33_AU43-33	valence	0.0054348938085689745		3.077277688695176
id-1306_AU22-66_AU25-33_AU43-33	1	1	3	10	24	test_extra	id-1306_AU22-66_AU25-33_AU43-33	arousal	0.013587234521422437		3.077277688695176
id-1270_AU11-100_AU15-100_AU20-66_AU7-66	1	1	3	10	25	test	id-1270_AU11-100_AU15-100_AU20-66_AU7-66	valence	-0.4320740577812335		1.243818279948755
id-1270_AU11-100_AU15-100_AU20-66_AU7-66	1	1	3	10	25	test	id-1270_AU11-100_AU15-100_AU20-66_AU7-66	arousal	-0.01902212832999141		1.243818279948755
id-1347_AU10Open-100_AU25-100	1	1	3	10	26	test_extra	id-1347_AU10Open-100_AU25-100	valence	-0.6413174694111391		0.7352265372937836
id-1347_AU10Open-100_AU25-100	1	1	3	10	26	test_extra	id-1347_AU10Open-100_AU25-100	arousal	-0.04891404427712077		0.7352265372937836
id-1356_AU15-100	1	1	3	10	27	train	id-1356_AU15-100	valence	-0.2500051151941728		0.9770501492384938
id-1356_AU15-100	1	1	3	10	27	train	id-1356_AU15-100	arousal	-0.7962119429553548		0.9770501492384938
id-1356_AU10Open-66_AU22-100_AU4-100_AU7-33	1	1	3	10	28	train	id-1356_AU10Open-66_AU22-100_AU4-100_AU7-33	valence	-0.3750076727912592		1.0604594497999642
id-1356_AU10Open-66_AU22-100_AU4-100_AU7-33	1	1	3	10	28	train	id-1356_AU10Open-66_AU22-100_AU4-100_AU7-33	arousal	-0.3614204382698367		1.0604594497999642
id-1306_AU16Open-66_AU2-33_AU5-33_AU6-100	1	1	3	10	29	train	id-1306_AU16Open-66_AU2-33_AU5-33_AU6-100	valence	-0.4103344825469576		1.0938502163699009
id-1306_AU16Open-66_AU2-33_AU5-33_AU6-100	1	1	3	10	29	train	id-1306_AU16Open-66_AU2-33_AU5-33_AU6-100	arousal	-0.2282655399598969		1.0938502163699009
id-1297_AU1-100_AU11-33_AU14-33_AU24-66	1	1	3	10	30	test_extra	id-1297_AU1-100_AU11-33_AU14-33_AU24-66	valence	-0.0027174469042844872		1.3437901469187636
id-1297_AU1-100_AU11-33_AU14-33_AU24-66	1	1	3	10	30	test_extra	id-1297_AU1-100_AU11-33_AU14-33_AU24-66	arousal	0.010869787617137949		1.3437901469187636
id-1335_AU11-66_AU14-100	1	1	3	10	31	test_extra	id-1335_AU11-66_AU14-100	valence	0.5543591684740353		0.7770309511615778
id-1335_AU11-66_AU14-100	1	1	3	10	31	test_extra	id-1335_AU11-66_AU14-100	arousal	0.3043540532798626		0.7770309511615778
id-1294_AU11-66_AU20-33_AU25-33	1	1	3	10	32	test	id-1294_AU11-66_AU20-33_AU25-33	valence	-0.2717446904284487		1.0852835278092243
id-1294_AU11-66_AU20-33_AU25-33	1	1	3	10	32	test	id-1294_AU11-66_AU20-33_AU25-33	arousal	-0.5489242746654663		1.0852835278092243
id-1366_AU12-100	1	1	3	10	33	train	id-1366_AU12-100	valence	0.5190323587183371		2.3937624968602904
id-1366_AU12-100	1	1	3	10	33	train	id-1366_AU12-100	arousal	0.19837362401276756		2.3937624968602904
id-1273_AU11-33_AU14-33_AU26-100	1	1	3	10	34	test_extra	id-1273_AU11-33_AU14-33_AU26-100	valence	0.6793617260711217		0.7518138559389627
id-1273_AU11-33_AU14-33_AU26-100	1	1	3	10	34	test_extra	id-1273_AU11-33_AU14-33_AU26-100	arousal	0.21739575234275896		0.7518138559389627
id-1266_AU13-66_AU17-100_AU2-100_AU9-33	1	1	3	10	35	test	id-1266_AU13-66_AU17-100_AU2-100_AU9-33	valence	0.0		1.2855771134782117
id-1266_AU13-66_AU17-100_AU2-100_AU9-33	1	1	3	10	35	test	id-1266_AU13-66_AU17-100_AU2-100_AU9-33	arousal	0.0		1.2855771134782117
id-1341_AU1-33_AU15-33_AU2-66_AU4-33	1	1	3	10	36	test	id-1341_AU1-33_AU15-33_AU2-66_AU4-33	valence	0.0027174469042844872		1.2687244629360066
id-1341_AU1-33_AU15-33_AU2-66_AU4-33	1	1	3	10	36	test	id-1341_AU1-33_AU15-33_AU2-66_AU4-33	arousal	-0.9429540757867167		1.2687244629360066
id-1373_AU6-66_AU7-66	1	1	3	11	1	test_extra	id-1373_AU6-66_AU7-66	emotion	Geen van allen	0.0	5.503755397194254
id-1370_AU10Open-100_AU2-33_AU27i-66_AU5-66	1	1	3	11	2	test	id-1370_AU10Open-100_AU2-33_AU27i-66_AU5-66	emotion	Boos	0.3893849922825487	0.952790542954972
id-1270_AU13-100_AU17-100_AU25-100	1	1	3	11	3	test_extra	id-1270_AU13-100_AU17-100_AU25-100	emotion	Verdrietig	0.2660025502468682	1.6032264841669532
id-1290_AU24-100_AU9-33	1	1	3	11	4	test_extra	id-1290_AU24-100_AU9-33	emotion	Boos	0.8271270275938891	0.7695850559284736
id-1367_AU24-33_AU4-66_AU43-33	1	1	3	11	5	train	id-1367_AU24-33_AU4-66_AU43-33	emotion	Geen van allen	0.0	2.9282586620756774
id-1307_AU11-66_AU20-33_AU7-100_AU9-66	1	1	3	11	6	test_extra	id-1307_AU11-66_AU20-33_AU7-100_AU9-66	emotion	Walging	0.4978989732429446	0.936407279330524
id-1285_AU12-66_AU20-100	1	1	3	11	7	test_extra	id-1285_AU12-66_AU20-100	emotion	Blij	0.5774487481928987	0.7464362817063375
id-1296_AU17-66_AU26-66_AU4-66	1	1	3	11	8	test_extra	id-1296_AU17-66_AU26-66_AU4-66	emotion	Geen van allen	0.0	2.953331168015211
id-1269_AU16Open-66_AU5-100	1	1	3	11	9	test_extra	id-1269_AU16Open-66_AU5-100	emotion	Boos	0.5744779185485009	1.5114699447476596
id-1362_AU11-33_AU13-66_AU17-33_AU2-100_AU22-33	1	1	3	11	10	test_extra	id-1362_AU11-33_AU13-66_AU17-33_AU2-100_AU22-33	emotion	Geen van allen	0.0	0.7695989413296047
id-1378_AU25-33_AU4-66_AU43-33_AU7-33	1	1	3	11	11	train	id-1378_AU25-33_AU4-66_AU43-33_AU7-33	emotion	Blij	0.0813515428552402	1.4614151879723067
id-1269_AU17-33_AU24-33_AU6-66	1	1	3	11	12	test_extra	id-1269_AU17-33_AU24-33_AU6-66	emotion	Boos	0.0916929294688938	0.7796178616972611
id-1380_AU10Open-33_AU13-33_AU16Open-100_AU22-33_AU43-66	1	1	3	11	13	test	id-1380_AU10Open-33_AU13-33_AU16Open-100_AU22-33_AU43-66	emotion	Boos	0.20787824044990288	0.6613706943189754
id-1373_AU10Open-100_AU17-66_AU24-33_AU43-100_AU9-66	1	1	3	11	14	test_extra	id-1373_AU10Open-100_AU17-66_AU24-33_AU43-100_AU9-66	emotion	Walging	0.31020569309987683	0.8945962246198178
id-1366_AU10Open-66_AU12-33_AU6-100_AU7-33	1	1	3	11	15	train	id-1366_AU10Open-66_AU12-33_AU6-100_AU7-33	emotion	Blij	0.34571601598191143	0.5216416045241203
id-1294_AU13-33	1	1	3	11	16	test_extra	id-1294_AU13-33	emotion	Verdrietig	0.06738196585114682	1.6614709106888768
id-1293_AU10Open-66_AU26-100_AU27i-66_AU6-100	1	1	3	11	17	test_extra	id-1293_AU10Open-66_AU26-100_AU27i-66_AU6-100	emotion	Geen van allen	0.0	4.1700750294621685
id-1341_AU15-66_AU2-100_AU26-33_AU4-66	1	1	3	11	18	train	id-1341_AU15-66_AU2-100_AU26-33_AU4-66	emotion	Bang	0.4369508889660021	3.2617358803581737
id-1378_AU26-66_AU4-33_AU43-66	1	1	3	11	19	test_extra	id-1378_AU26-66_AU4-33_AU43-66	emotion	Verrassing	0.4301436627355769	1.1697786063396052
id-1285_AU11-33_AU17-33_AU5-100_AU7-33	1	1	3	11	20	train	id-1285_AU11-33_AU17-33_AU5-100_AU7-33	emotion	Verdrietig	0.3740624024519383	0.8863015087990789
id-1269_AU13-33_AU15-100	1	1	3	11	21	test_extra	id-1269_AU13-33_AU15-100	emotion	Verdrietig	0.17315336153054686	0.7028970983137697
id-1297_AU10Open-66_AU5-66_AU9-100	1	1	3	11	22	test_extra	id-1297_AU10Open-66_AU5-66_AU9-100	emotion	Boos	0.7762727253949283	0.7280767633237701
id-1360_AU2-100_AU26-33	1	1	3	11	23	test_extra	id-1360_AU2-100_AU26-33	emotion	Verrassing	0.5181959990847963	1.0863149716005864
id-1344_AU13-66_AU14-66_AU24-33_AU9-33	1	1	3	11	24	test	id-1344_AU13-66_AU14-66_AU24-33_AU9-33	emotion	Boos	0.2984147539434264	0.7948736911494052
id-1342_AU12-100_AU20-100_AU6-66	1	1	3	11	25	test_extra	id-1342_AU12-100_AU20-100_AU6-66	emotion	Boos	0.07026300118166022	1.3614348690189215
id-1310_AU13-66_AU14-100_AU4-66_AU9-33	1	1	3	11	26	test_extra	id-1310_AU13-66_AU14-100_AU4-66_AU9-33	emotion	Verdrietig	0.023581034421486662	1.061357473001408
id-1360_AU1-100_AU11-66	1	1	3	11	27	test	id-1360_AU1-100_AU11-66	emotion	Verdrietig	0.07338174005117408	2.219862039488362
id-1373_AU11-33_AU13-100_AU16Open-66_AU43-33	1	1	3	11	28	test	id-1373_AU11-33_AU13-100_AU16Open-66_AU43-33	emotion	Geen van allen	0.0	0.8696577429818717
id-1273_AU15-100_AU2-100	1	1	3	11	29	test_extra	id-1273_AU15-100_AU2-100	emotion	Verrassing	0.09293486348145426	1.8112527287830744
id-1345_AU12-33_AU27i-66_AU7-100_AU9-66	1	1	3	11	30	train	id-1345_AU12-33_AU27i-66_AU7-100_AU9-66	emotion	Boos	0.5073749046504789	1.261471755888124
id-1270_AU5-33_AU7-100	1	1	3	11	31	train	id-1270_AU5-33_AU7-100	emotion	Geen van allen	0.0	0.7112201886484399
id-1269_AU11-100_AU25-33_AU43-66	1	1	3	11	32	train	id-1269_AU11-100_AU25-33_AU43-66	emotion	Walging	0.31360806700681704	1.144840124703478
id-1310_AU13-66	1	1	3	11	33	test_extra	id-1310_AU13-66	emotion	Geen van allen	0.0	2.1713473547715694
id-1366_AU14-33_AU2-100_AU26-100_AU27i-100	1	1	3	11	34	test	id-1366_AU14-33_AU2-100_AU26-100_AU27i-100	emotion	Blij	0.4646718852770224	0.8369126475481607
id-1309_AU15-33	1	1	3	11	35	test	id-1309_AU15-33	emotion	Verdrietig	0.0823626282114897	0.8781489674074692
id-1269_AU11-100_AU13-33_AU25-100	1	1	3	11	36	test_extra	id-1269_AU11-100_AU13-33_AU25-100	emotion	Boos	0.550842814046932	0.6048145514178032
id-1296_AU12-66_AU6-66	1	1	3	12	1	test_extra	id-1296_AU12-66_AU6-66	emotion	Geen van allen	0.0	2.3281349612643685
id-1373_AU5-33	1	1	3	12	2	train	id-1373_AU5-33	emotion	Bang	0.16135398923778385	0.8029060936387395
id-1294_AU12-100_AU24-66_AU27i-33	1	1	3	12	3	test_extra	id-1294_AU12-100_AU24-66_AU27i-33	emotion	Verrassing	0.32277080183694423	1.8865469181655496
id-1269_AU10Open-66_AU20-66_AU26-66_AU43-66	1	1	3	12	4	test	id-1269_AU10Open-66_AU20-66_AU26-66_AU43-66	emotion	Walging	0.09922764033590084	2.803112865367438
id-1339_AU1-66_AU10Open-33_AU26-33	1	1	3	12	5	train	id-1339_AU1-66_AU10Open-33_AU26-33	emotion	Blij	0.16507122847182226	1.0281239736868883
id-1361_AU2-100_AU20-66_AU6-100	1	1	3	12	6	test_extra	id-1361_AU2-100_AU20-66_AU6-100	emotion	Bang	0.29724626018286	3.063276073160523
id-1269_AU15-66_AU16Open-66_AU26-33_AU27i-100	1	1	3	12	7	test	id-1269_AU15-66_AU16Open-66_AU26-33_AU27i-100	emotion	Verrassing	0.36369302870739134	0.9363858475171584
id-1260_AU13-33_AU4-66	1	1	3	12	8	train	id-1260_AU13-33_AU4-66	emotion	Verdrietig	0.6387594389184107	3.7971059202518522
id-1342_AU11-33_AU4-100_AU43-100_AU5-33	1	1	3	12	9	test_extra	id-1342_AU11-33_AU4-100_AU43-100_AU5-33	emotion	Geen van allen	0.0	2.369874777834412
id-1291_AU2-66_AU43-100_AU9-100	1	1	3	12	10	test_extra	id-1291_AU2-66_AU43-100_AU9-100	emotion	Geen van allen	0.0	0.9197161220381532
id-1356_AU1-33_AU12-33_AU24-33_AU6-100	1	1	3	12	11	test_extra	id-1356_AU1-33_AU12-33_AU24-33_AU6-100	emotion	Blij	0.07247981178982857	0.6779263180251291
id-1335_AU11-66_AU17-66_AU25-66_AU6-33	1	1	3	12	12	train	id-1335_AU11-66_AU17-66_AU25-66_AU6-33	emotion	Walging	0.14183670521176395	2.311503873423135
id-1290_AU11-33_AU5-66	1	1	3	12	13	train	id-1290_AU11-33_AU5-66	emotion	Boos	0.3001943055636085	0.9113039840231068
id-1306_AU24-66_AU43-100_AU7-100	1	1	3	12	14	test	id-1306_AU24-66_AU43-100_AU7-100	emotion	Geen van allen	0.0	5.278718932924676
id-1323_AU10Open-100_AU2-33_AU20-66_AU4-66	1	1	3	12	15	test_extra	id-1323_AU10Open-100_AU2-33_AU20-66_AU4-66	emotion	Boos	0.5142219075120753	1.1865180606801005
id-1355_AU12-66_AU13-100_AU27i-100_AU5-100	1	1	3	12	16	test_extra	id-1355_AU12-66_AU13-100_AU27i-100_AU5-100	emotion	Bang	0.4743175922461878	1.278118238413299
id-1344_AU1-66_AU12-66_AU24-33_AU27i-33	1	1	3	12	17	train	id-1344_AU1-66_AU12-66_AU24-33_AU27i-33	emotion	Verrassing	0.4362011049486779	1.661538526554068
id-1376_AU13-66_AU16Open-100	1	1	3	12	18	train	id-1376_AU13-66_AU16Open-100	emotion	Bang	0.2714621326270023	0.9030270777402621
id-1366_AU14-33_AU25-33	1	1	3	12	19	test_extra	id-1366_AU14-33_AU25-33	emotion	Geen van allen	0.0	0.8446960183919145
id-1345_AU10Open-33_AU27i-100	1	1	3	12	20	train	id-1345_AU10Open-33_AU27i-100	emotion	Boos	0.6099602404538581	2.0049625214924163
id-1307_AU10Open-66_AU17-33_AU22-33_AU9-100	1	1	3	12	21	test	id-1307_AU10Open-66_AU17-33_AU22-33_AU9-100	emotion	Boos	0.8636986178745345	0.7112956527835195
id-1291_AU15-66_AU20-66_AU7-100	1	1	3	12	22	test_extra	id-1291_AU15-66_AU20-66_AU7-100	emotion	Bang	0.3381768603240923	1.5031112353426581
id-1311_AU11-66_AU5-100_AU7-66	1	1	3	12	23	test_extra	id-1311_AU11-66_AU5-100_AU7-66	emotion	Geen van allen	0.0	3.636693016729623
id-1363_AU13-66_AU22-100_AU7-66	1	1	3	12	24	test_extra	id-1363_AU13-66_AU22-100_AU7-66	emotion	Geen van allen	0.0	0.7945461768049427
id-1377_AU13-66_AU14-100_AU9-66	1	1	3	12	25	test_extra	id-1377_AU13-66_AU14-100_AU9-66	emotion	Blij	0.5026462001280914	0.7779277669378644
id-1361_AU13-66_AU6-33	1	1	3	12	26	test_extra	id-1361_AU13-66_AU6-33	emotion	Geen van allen	0.0	4.08683929640938
id-1285_AU11-33_AU20-66_AU4-66	1	1	3	12	27	test_extra	id-1285_AU11-33_AU20-66_AU4-66	emotion	Bang	0.2730879330104718	4.7782721852472605
id-1260_AU20-100_AU25-33_AU4-33	1	1	3	12	28	train	id-1260_AU20-100_AU25-33_AU4-33	emotion	Verdrietig	0.2319037924895905	1.069747877343616
id-1341_AU12-66_AU20-66	1	1	3	12	29	train	id-1341_AU12-66_AU20-66	emotion	Blij	0.5702890907381271	0.6530385482874408
id-1315_AU12-66_AU17-33_AU2-100_AU4-100	1	1	3	12	30	test	id-1315_AU12-66_AU17-33_AU2-100_AU4-100	emotion	Geen van allen	0.0	1.1364074604443886
id-1354_AU1-66_AU10Open-100	1	1	3	12	31	test	id-1354_AU1-66_AU10Open-100	emotion	Verdrietig	0.2927176231045894	5.4869259896058775
id-1307_AU16Open-66_AU17-66_AU43-33	1	1	3	12	32	test_extra	id-1307_AU16Open-66_AU17-66_AU43-33	emotion	Geen van allen	0.0	1.0280249647439632
id-1356_AU13-100_AU25-33_AU26-100	1	1	3	12	33	train	id-1356_AU13-100_AU25-33_AU26-100	emotion	Geen van allen	0.0	3.8054694593629392
id-1289_AU11-100_AU7-100	1	1	3	12	34	test_extra	id-1289_AU11-100_AU7-100	emotion	Walging	0.3082732108242793	0.9364003366299584
id-1302_AU15-66_AU24-100_AU25-100_AU43-33	1	1	3	12	35	test	id-1302_AU15-66_AU24-100_AU25-100_AU43-33	emotion	Walging	0.1641610258369144	1.0447484206870286
id-1360_AU1-33_AU15-33_AU26-33	1	1	3	12	36	test_extra	id-1360_AU1-33_AU15-33_AU26-33	emotion	Geen van allen	0.0	0.8280984366247139
id-1361_AU16Open-33_AU24-66_AU25-100	1	1	4	13	1	test_extra	id-1361_AU16Open-33_AU24-66_AU25-100	emotion	Boos	0.2717717278600491	4.212484967543787
id-1306_AU1-66_AU27i-33	1	1	4	13	2	test_extra	id-1306_AU1-66_AU27i-33	emotion	Verrassing	0.4454088833739721	0.8865662369844358
id-1273_AU11-33_AU14-33_AU26-100	1	1	4	13	3	test_extra	id-1273_AU11-33_AU14-33_AU26-100	emotion	Blij	0.41614422150692215	0.987034657960976
id-1356_AU10Open-66_AU22-100_AU4-100_AU7-33	1	1	4	13	4	train	id-1356_AU10Open-66_AU22-100_AU4-100_AU7-33	emotion	Verdrietig	0.3272782617526925	9.012409926008331
id-1270_AU15-33_AU22-66	1	1	4	13	5	train	id-1270_AU15-33_AU22-66	emotion	Verdrietig	0.294181225443995	0.9033105210273789
id-1269_AU12-100_AU2-66_AU20-33_AU43-66	1	1	4	13	6	train	id-1269_AU12-100_AU2-66_AU20-33_AU43-66	emotion	Blij	0.22151734475740809	0.6946751299183234
id-1345_AU12-66	1	1	4	13	7	train	id-1345_AU12-66	emotion	Blij	0.1933884965946936	0.5862724098296894
id-1335_AU11-66_AU14-100	1	1	4	13	8	test_extra	id-1335_AU11-66_AU14-100	emotion	Blij	0.2721269196766853	0.95295807333423
id-1354_AU10Open-100_AU17-100_AU27i-33_AU4-33	1	1	4	13	9	train	id-1354_AU10Open-100_AU17-100_AU27i-33_AU4-33	emotion	Walging	0.5303644971413534	5.845306372311826
id-1302_AU1-33_AU22-100	1	1	4	13	10	test_extra	id-1302_AU1-33_AU22-100	emotion	Verrassing	0.4162390667185528	0.986243190116511
id-1345_AU11-100_AU20-66	1	1	4	13	11	test_extra	id-1345_AU11-100_AU20-66	emotion	Bang	0.22611200757638505	1.8782307705314447
id-1366_AU12-100	1	1	4	13	12	train	id-1366_AU12-100	emotion	Blij	0.5185994744336838	0.9363330226224208
id-1370_AU20-33_AU26-100	1	1	4	13	13	test_extra	id-1370_AU20-33_AU26-100	emotion	Geen van allen	0.0	5.495367105848342
id-1315_AU27i-66	1	1	4	13	14	test_extra	id-1315_AU27i-66	emotion	Verrassing	0.5476839740108405	0.7451591266926698
id-1293_AU22-66_AU25-100_AU5-33_AU9-33	1	1	4	13	15	test	id-1293_AU22-66_AU25-100_AU5-33_AU9-33	emotion	Boos	0.5328331456617922	0.5362656482429884
id-1356_AU15-100	1	1	4	13	16	train	id-1356_AU15-100	emotion	Verdrietig	0.5382722390081797	2.728367451170925
id-1266_AU13-66_AU17-100_AU2-100_AU9-33	1	1	4	13	17	test	id-1266_AU13-66_AU17-100_AU2-100_AU9-33	emotion	Geen van allen	0.0	0.9863168431111262
id-1362_AU17-66_AU27i-100_AU9-100	1	1	4	13	18	train	id-1362_AU17-66_AU27i-100_AU9-100	emotion	Boos	0.5445181700023198	0.6696110759621661
id-1285_AU10Open-66_AU17-100_AU9-66	1	1	4	13	19	test_extra	id-1285_AU10Open-66_AU17-100_AU9-66	emotion	Walging	0.35965041278854154	0.7697275322152564
id-1260_AU12-66_AU25-33	1	1	4	13	20	test	id-1260_AU12-66_AU25-33	emotion	Verdrietig	0.12682668496903196	0.686315514943999
id-1306_AU22-66_AU25-33_AU43-33	1	1	4	13	21	test_extra	id-1306_AU22-66_AU25-33_AU43-33	emotion	Geen van allen	0.0	0.6945525761639146
id-1373_AU1-66	1	1	4	13	22	train	id-1373_AU1-66	emotion	Verdrietig	0.015401149280546512	0.7278669730312686
id-1306_AU43-100_AU9-33	1	1	4	13	23	test_extra	id-1306_AU43-100_AU9-33	emotion	Geen van allen	0.0	0.7695452108637255
id-1347_AU10Open-100_AU25-100	1	1	4	13	24	test_extra	id-1347_AU10Open-100_AU25-100	emotion	Boos	0.06217058250569621	0.7613335055939388
id-1347_AU20-100_AU5-100	1	1	4	13	25	test_extra	id-1347_AU20-100_AU5-100	emotion	Bang	0.3516160348198583	0.9698979604163468
id-1311_AU16Open-100_AU43-100_AU6-66_AU9-100	1	1	4	13	26	test	id-1311_AU16Open-100_AU43-100_AU6-66_AU9-100	emotion	Boos	0.10476458175268244	0.5281894765575998
id-1270_AU11-100_AU15-100_AU20-66_AU7-66	1	1	4	13	27	test	id-1270_AU11-100_AU15-100_AU20-66_AU7-66	emotion	Bang	0.39827061847196615	1.4030150034777762
id-1361_AU10Open-33_AU11-100_AU13-66_AU2-100	1	1	4	13	28	train	id-1361_AU10Open-33_AU11-100_AU13-66_AU2-100	emotion	Bang	0.4006408275013067	1.3530991007100963
id-1323_AU10Open-33_AU11-33	1	1	4	13	29	train	id-1323_AU10Open-33_AU11-33	emotion	Geen van allen	0.0	1.8282321590704669
id-1344_AU13-100_AU17-100_AU9-66	1	1	4	13	30	train	id-1344_AU13-100_AU17-100_AU9-66	emotion	Boos	0.5819802287051106	0.9612705986892252
id-1306_AU16Open-66_AU2-33_AU5-33_AU6-100	1	1	4	13	31	train	id-1306_AU16Open-66_AU2-33_AU5-33_AU6-100	emotion	Geen van allen	0.0	1.3280706658242707
id-1273_AU22-100_AU26-33	1	1	4	13	32	test_extra	id-1273_AU22-100_AU26-33	emotion	Verrassing	0.2575571232609119	0.9445625374301015
id-1358_AU15-66_AU2-33_AU26-66	1	1	4	13	33	train	id-1358_AU15-66_AU2-33_AU26-66	emotion	Verrassing	0.40485077929743546	2.4032175492156966
id-1341_AU1-33_AU15-33_AU2-66_AU4-33	1	1	4	13	34	test	id-1341_AU1-33_AU15-33_AU2-66_AU4-33	emotion	Geen van allen	0.0	1.7780642060934042
id-1297_AU1-100_AU11-33_AU14-33_AU24-66	1	1	4	13	35	test_extra	id-1297_AU1-100_AU11-33_AU14-33_AU24-66	emotion	Walging	0.1471824384772121	1.28637099617481
id-1294_AU11-66_AU20-33_AU25-33	1	1	4	13	36	test	id-1294_AU11-66_AU20-33_AU25-33	emotion	Bang	0.2151735725454289	4.286849136931778
id-1335_AU10Open-33_AU17-100	1	1	4	14	1	train	id-1335_AU10Open-33_AU17-100	emotion	Boos	0.1433966184385437	1.511391160191124
id-1309_AU11-66_AU24-66	1	1	4	14	2	test	id-1309_AU11-66_AU24-66	emotion	Verdrietig	0.10281348467487833	0.5863505906727369
id-1289_AU10Open-66_AU22-66_AU43-100_AU5-33	1	1	4	14	3	test_extra	id-1289_AU10Open-66_AU22-66_AU43-100_AU5-33	emotion	Walging	0.10169220317629356	1.5113926694739348
id-1274_AU15-100_AU16Open-66_AU24-33	1	1	4	14	4	test_extra	id-1274_AU15-100_AU16Open-66_AU24-33	emotion	Boos	0.3639582843589865	0.6863942995005345
id-1361_AU12-33_AU15-33_AU16Open-100_AU6-66	1	1	4	14	5	test	id-1361_AU12-33_AU15-33_AU16Open-100_AU6-66	emotion	Blij	0.3497509337696691	0.7613033199377242
id-1361_AU15-66_AU24-66_AU7-66	1	1	4	14	6	train	id-1361_AU15-66_AU24-66_AU7-66	emotion	Verdrietig	0.3168306186049694	7.987360964878462
id-1302_AU26-100	1	1	4	14	7	train	id-1302_AU26-100	emotion	Verrassing	0.3209499677823577	1.011416516141253
id-1318_AU1-33_AU13-66_AU26-66	1	1	4	14	8	test_extra	id-1318_AU1-33_AU13-66_AU26-66	emotion	Geen van allen	0.0	0.5778593662453204
id-1285_AU16Open-33_AU5-33	1	1	4	14	9	test	id-1285_AU16Open-33_AU5-33	emotion	Geen van allen	0.0	0.7448367439101276
id-1344_AU2-33_AU20-100_AU24-100	1	1	4	14	10	test	id-1344_AU2-33_AU20-100_AU24-100	emotion	Bang	0.12851702395904044	0.8114818378962809
id-1360_AU6-33_AU9-33	1	1	4	14	11	train	id-1360_AU6-33_AU9-33	emotion	Geen van allen	0.0	0.8279562621955847
id-1274_AU10Open-66_AU2-33_AU43-100_AU9-66	1	1	4	14	12	test	id-1274_AU10Open-66_AU2-33_AU43-100_AU9-66	emotion	Walging	0.5696887415803894	0.8862459671963734
id-1339_AU10Open-66_AU20-66_AU27i-100	1	1	4	14	13	train	id-1339_AU10Open-66_AU20-66_AU27i-100	emotion	Geen van allen	0.0	1.7031823527413508
id-1297_AU11-100_AU24-33	1	1	4	14	14	test	id-1297_AU11-100_AU24-33	emotion	Walging	0.08139206539607463	1.5367169237670169
id-1377_AU10Open-66_AU16Open-66_AU26-100	1	1	4	14	15	train	id-1377_AU10Open-66_AU16Open-66_AU26-100	emotion	Boos	0.436209441005144	0.8446643234547082
id-1360_AU24-66_AU26-33_AU5-100_AU7-33	1	1	4	14	16	test_extra	id-1360_AU24-66_AU26-33_AU5-100_AU7-33	emotion	Geen van allen	0.0	3.1215023882887185
id-1269_AU14-100_AU20-100_AU5-66	1	1	4	14	17	test_extra	id-1269_AU14-100_AU20-100_AU5-66	emotion	Blij	0.11677439324888635	0.6780153657055052
id-1270_AU12-100_AU13-100_AU14-66_AU2-100_AU25-66	1	1	4	14	18	train	id-1270_AU12-100_AU13-100_AU14-66_AU2-100_AU25-66	emotion	Blij	0.4300510275921356	1.1033722808770108
id-1285_AU27i-100_AU4-33_AU6-100	1	1	4	14	19	test_extra	id-1285_AU27i-100_AU4-33_AU6-100	emotion	Boos	0.2986092175996508	1.036616405541281
