	rep	session	run	block	trial	data_split	trial_type	rating_type	rating	rating_intensity	rating_RT
id-1270_AU12-100_AU13-100_AU14-66_AU2-100_AU25-66	1	1	1	1	1	test_extra	id-1270_AU12-100_AU13-100_AU14-66_AU2-100_AU25-66	valence	0.9049098191267342		1.7271069541009183
id-1270_AU12-100_AU13-100_AU14-66_AU2-100_AU25-66	1	1	1	1	1	test_extra	id-1270_AU12-100_AU13-100_AU14-66_AU2-100_AU25-66	arousal	0.9293668412652946		1.7271069541009183
id-1376_AU16Open-66_AU17-66_AU6-33	1	1	1	1	2	test_extra	id-1376_AU16Open-66_AU17-66_AU6-33	valence	-0.3885949073126817		0.8687592650560418
id-1376_AU16Open-66_AU17-66_AU6-33	1	1	1	1	2	test_extra	id-1376_AU16Open-66_AU17-66_AU6-33	arousal	0.2581574559070263		0.8687592650560418
id-1366_AU14-33_AU2-100_AU26-100_AU27i-100	1	1	1	1	3	test	id-1366_AU14-33_AU2-100_AU26-100_AU27i-100	valence	-0.0625012787985432		3.2525115074597584
id-1366_AU14-33_AU2-100_AU26-100_AU27i-100	1	1	1	1	3	test	id-1366_AU14-33_AU2-100_AU26-100_AU27i-100	arousal	0.7717549208167943		3.2525115074597584
id-1311_AU15-66_AU16Open-100_AU17-66_AU20-100	1	1	1	1	4	test_extra	id-1311_AU15-66_AU16Open-100_AU17-66_AU20-100	valence	-0.19837362401276756		1.87713815079519
id-1311_AU15-66_AU16Open-100_AU17-66_AU20-100	1	1	1	1	4	test_extra	id-1311_AU15-66_AU16Open-100_AU17-66_AU20-100	arousal	0.23913532757703485		1.87713815079519
id-1347_AU1-100_AU11-66_AU25-33_AU5-33	1	1	1	1	5	test_extra	id-1347_AU1-100_AU11-66_AU25-33_AU5-33	valence	-0.3587029913655523		2.6021671364030685
id-1347_AU1-100_AU11-66_AU25-33_AU5-33	1	1	1	1	5	test_extra	id-1347_AU1-100_AU11-66_AU25-33_AU5-33	arousal	-0.2255480930556124		2.6021671364030685
id-1297_AU11-100_AU24-33	1	1	1	1	6	test	id-1297_AU11-100_AU24-33	valence	-0.7608851331996563		2.1270911369088026
id-1297_AU11-100_AU24-33	1	1	1	1	6	test	id-1297_AU11-100_AU24-33	arousal	0.6712093853582682		2.1270911369088026
id-1342_AU1-100_AU27i-33	1	1	1	1	7	test_extra	id-1342_AU1-100_AU27i-33	valence	-0.4837055489626387		3.1690314475356445
id-1342_AU1-100_AU27i-33	1	1	1	1	7	test_extra	id-1342_AU1-100_AU27i-33	arousal	0.5489242746654663		3.1690314475356445
id-1294_AU11-66_AU20-33_AU25-33	1	1	1	1	8	test	id-1294_AU11-66_AU20-33_AU25-33	valence	-0.3423983099398454		4.56909954598018
id-1294_AU11-66_AU20-33_AU25-33	1	1	1	1	8	test	id-1294_AU11-66_AU20-33_AU25-33	arousal	-0.21739575234275896		4.56909954598018
id-1297_AU20-33_AU22-33_AU26-66	1	1	1	1	9	test_extra	id-1297_AU20-33_AU22-33_AU26-66	valence	-0.6739268322625528		5.528326809747796
id-1297_AU20-33_AU22-33_AU26-66	1	1	1	1	9	test_extra	id-1297_AU20-33_AU22-33_AU26-66	arousal	0.13043745140565535		5.528326809747796
id-1260_AU17-33_AU24-100_AU6-33	1	1	1	1	10	test_extra	id-1260_AU17-33_AU24-100_AU6-33	valence	-0.13043745140565535		2.777241415324852
id-1260_AU17-33_AU24-100_AU6-33	1	1	1	1	10	test_extra	id-1260_AU17-33_AU24-100_AU6-33	arousal	-0.2364178806727504		2.777241415324852
id-1323_AU12-66_AU16Open-33_AU7-66_AU9-100	1	1	1	1	11	test	id-1323_AU12-66_AU16Open-33_AU7-66_AU9-100	valence	-0.2500051151941728		1.5103866729896254
id-1323_AU12-66_AU16Open-33_AU7-66_AU9-100	1	1	1	1	11	test	id-1323_AU12-66_AU16Open-33_AU7-66_AU9-100	arousal	0.5543591684740353		1.5103866729896254
id-1380_AU1-66_AU14-100_AU17-66_AU9-33	1	1	1	1	12	train	id-1380_AU1-66_AU14-100_AU17-66_AU9-33	valence	-0.30707150018414703		1.6605983788585943
id-1380_AU1-66_AU14-100_AU17-66_AU9-33	1	1	1	1	12	train	id-1380_AU1-66_AU14-100_AU17-66_AU9-33	arousal	0.5788161906125957		1.6605983788585943
id-1311_AU27i-100_AU4-66	1	1	1	1	13	test_extra	id-1311_AU27i-100_AU4-66	valence	-0.2500051151941728		3.9190814799699183
id-1311_AU27i-100_AU4-66	1	1	1	1	13	test_extra	id-1311_AU27i-100_AU4-66	arousal	-0.2500051151941728		3.9190814799699183
id-1342_AU14-33_AU20-33_AU43-100	1	1	1	1	14	test_extra	id-1342_AU14-33_AU20-33_AU43-100	valence	0.29891915947129355		4.2274104691096
id-1342_AU14-33_AU20-33_AU43-100	1	1	1	1	14	test_extra	id-1342_AU14-33_AU20-33_AU43-100	arousal	-0.6875140667839752		4.2274104691096
id-1310_AU13-66_AU14-100_AU4-66_AU9-33	1	1	1	1	15	train	id-1310_AU13-66_AU14-100_AU4-66_AU9-33	valence	-0.23370043376846586		2.7855566096995967
id-1310_AU13-66_AU14-100_AU4-66_AU9-33	1	1	1	1	15	train	id-1310_AU13-66_AU14-100_AU4-66_AU9-33	arousal	0.7119710889225355		2.7855566096995967
id-1266_AU17-33_AU24-33_AU26-66	1	1	1	1	16	test_extra	id-1266_AU17-33_AU24-33_AU26-66	valence	-0.201091070917052		3.8188976805777206
id-1266_AU17-33_AU24-33_AU26-66	1	1	1	1	16	test_extra	id-1266_AU17-33_AU24-33_AU26-66	arousal	-0.7880596022425012		3.8188976805777206
id-1280_AU11-33_AU16Open-66_AU25-66_AU7-33	1	1	1	1	17	train	id-1280_AU11-33_AU16Open-66_AU25-66_AU7-33	valence	-0.19837362401276756		3.6940592860951256
id-1280_AU11-33_AU16Open-66_AU25-66_AU7-33	1	1	1	1	17	train	id-1280_AU11-33_AU16Open-66_AU25-66_AU7-33	arousal	-0.38044256659982817		3.6940592860951256
id-1362_AU7-100	1	1	1	1	18	train	id-1362_AU7-100	valence	0.831538752711053		2.602167740112691
id-1362_AU7-100	1	1	1	1	18	train	id-1362_AU7-100	arousal	-0.8695830093710358		2.602167740112691
id-1380_AU17-33_AU27i-100_AU6-100	1	1	1	1	19	train	id-1380_AU17-33_AU27i-100_AU6-100	valence	-0.17935149568277614		3.2272664843665098
id-1380_AU17-33_AU27i-100_AU6-100	1	1	1	1	19	train	id-1380_AU17-33_AU27i-100_AU6-100	arousal	0.8587132217538979		3.2272664843665098
id-1270_AU14-66_AU15-100_AU43-33	1	1	1	1	20	test_extra	id-1270_AU14-66_AU15-100_AU43-33	valence	-0.5380544870483285		4.502390237291138
id-1270_AU14-66_AU15-100_AU43-33	1	1	1	1	20	test_extra	id-1270_AU14-66_AU15-100_AU43-33	arousal	-0.625012787985432		4.502390237291138
id-1378_AU14-100_AU22-33_AU4-33	1	1	1	1	21	test_extra	id-1378_AU14-100_AU22-33_AU4-33	valence	0.33424596922699185		2.520143827778611
id-1378_AU14-100_AU22-33_AU4-33	1	1	1	1	21	test_extra	id-1378_AU14-100_AU22-33_AU4-33	arousal	0.3913123542169661		2.520143827778611
id-1335_AU1-33_AU14-66_AU27i-66_AU7-100	1	1	1	1	22	test_extra	id-1335_AU1-33_AU14-66_AU27i-66_AU7-100	valence	0.7500153455825184		3.5605854292873573
id-1335_AU1-33_AU14-66_AU27i-66_AU7-100	1	1	1	1	22	test_extra	id-1335_AU1-33_AU14-66_AU27i-66_AU7-100	arousal	0.6983838544011131		3.5605854292873573
id-1380_AU12-33_AU13-33_AU22-33_AU9-33	1	1	1	1	23	test_extra	id-1380_AU12-33_AU13-33_AU22-33_AU9-33	valence	-0.24457022138560386		5.5110966354961874
id-1380_AU12-33_AU13-33_AU22-33_AU9-33	1	1	1	1	23	test_extra	id-1380_AU12-33_AU13-33_AU22-33_AU9-33	arousal	0.2907668187584401		5.5110966354961874
id-1273_AU12-100_AU16Open-33_AU20-100_AU22-66_AU5-66	1	1	1	1	24	test	id-1273_AU12-100_AU16Open-33_AU20-100_AU22-66_AU5-66	valence	-0.8070817305724926		3.5687789761750537
id-1273_AU12-100_AU16Open-33_AU20-100_AU22-66_AU5-66	1	1	1	1	24	test	id-1273_AU12-100_AU16Open-33_AU20-100_AU22-66_AU5-66	arousal	0.7962119429553548		3.5687789761750537
id-1370_AU10Open-100_AU2-33_AU27i-66_AU5-66	1	1	1	1	25	test	id-1370_AU10Open-100_AU2-33_AU27i-66_AU5-66	valence	-0.44566129230265583		1.3937379012820656
id-1370_AU10Open-100_AU2-33_AU27i-66_AU5-66	1	1	1	1	25	test	id-1370_AU10Open-100_AU2-33_AU27i-66_AU5-66	arousal	0.7391455579653804		1.3937379012820656
id-1318_AU10Open-66	1	1	1	1	26	test_extra	id-1318_AU10Open-66	valence	-0.4402263984940868		2.8105655823337656
id-1318_AU10Open-66	1	1	1	1	26	test_extra	id-1318_AU10Open-66	arousal	0.3097889470884315		2.8105655823337656
id-1309_AU26-33_AU5-66	1	1	1	1	27	train	id-1309_AU26-33_AU5-66	valence	0.1820689425870606		3.744048555156724
id-1309_AU26-33_AU5-66	1	1	1	1	27	train	id-1309_AU26-33_AU5-66	arousal	0.8451259872324756		3.744048555156724
id-1335_AU10Open-100_AU27i-66_AU6-66_AU7-33	1	1	1	1	28	train	id-1335_AU10Open-100_AU27i-66_AU6-66_AU7-33	valence	-0.33424596922699185		1.6188847611920212
id-1335_AU10Open-100_AU27i-66_AU6-66_AU7-33	1	1	1	1	28	train	id-1335_AU10Open-100_AU27i-66_AU6-66_AU7-33	arousal	0.8261038589024841		1.6188847611920212
id-1342_AU22-33	1	1	1	1	29	test_extra	id-1342_AU22-33	valence	-0.44566129230265583		5.3442231479773445
id-1342_AU22-33	1	1	1	1	29	test_extra	id-1342_AU22-33	arousal	-0.9456715226910016		5.3442231479773445
id-1366_AU15-100_AU16Open-33_AU27i-33	1	1	1	1	30	test_extra	id-1366_AU15-100_AU16Open-33_AU27i-33	valence	0.26359234971559525		0.785342896496104
id-1366_AU15-100_AU16Open-33_AU27i-33	1	1	1	1	30	test_extra	id-1366_AU15-100_AU16Open-33_AU27i-33	arousal	0.9619762041167084		0.785342896496104
id-1318_AU22-100_AU26-100_AU27i-33_AU4-33_AU6-33	1	1	1	1	31	test	id-1318_AU22-100_AU26-100_AU27i-33_AU4-33_AU6-33	valence	-0.7717549208167943		1.8694918666731155
id-1318_AU22-100_AU26-100_AU27i-33_AU4-33_AU6-33	1	1	1	1	31	test	id-1318_AU22-100_AU26-100_AU27i-33_AU4-33_AU6-33	arousal	0.9076272660310184		1.8694918666731155
id-1291_AU10Open-66_AU15-33_AU20-100_AU4-100	1	1	1	1	32	test_extra	id-1291_AU10Open-66_AU15-33_AU20-100_AU4-100	valence	-0.5353370401440439		3.6856345184253314
id-1291_AU10Open-66_AU15-33_AU20-100_AU4-100	1	1	1	1	32	test_extra	id-1291_AU10Open-66_AU15-33_AU20-100_AU4-100	arousal	0.625012787985432		3.6856345184253314
id-1355_AU15-100_AU17-66	1	1	1	1	33	test_extra	id-1355_AU15-100_AU17-66	valence	0.1630468142570692		4.085715596626643
id-1355_AU15-100_AU17-66	1	1	1	1	33	test_extra	id-1355_AU15-100_AU17-66	arousal	-0.7146885358268201		4.085715596626643
id-1315_AU12-66_AU22-100	1	1	1	1	34	test_extra	id-1315_AU12-66_AU22-100	valence	-0.2282655399598969		2.3273081101442585
id-1315_AU12-66_AU22-100	1	1	1	1	34	test_extra	id-1315_AU12-66_AU22-100	arousal	-0.5000102303883456		2.3273081101442585
id-1273_AU13-33_AU4-100_AU9-100	1	1	1	1	35	test_extra	id-1273_AU13-33_AU4-100_AU9-100	valence	0.4891404427712077		1.6520902992619997
id-1273_AU13-33_AU4-100_AU9-100	1	1	1	1	35	test_extra	id-1273_AU13-33_AU4-100_AU9-100	arousal	0.19565617710848307		1.6520902992619997
id-1290_AU12-66_AU15-33_AU24-33	1	1	1	1	36	test_extra	id-1290_AU12-66_AU15-33_AU24-33	valence	0.00815234071285346		4.260807383127029
id-1290_AU12-66_AU15-33_AU24-33	1	1	1	1	36	test_extra	id-1290_AU12-66_AU15-33_AU24-33	arousal	-0.41305192945124203		4.260807383127029
id-1344_AU16Open-33	1	1	1	2	1	train	id-1344_AU16Open-33	emotion	Geen van allen	0.0	3.411630043126024
id-1344_AU2-33_AU20-100_AU24-100	1	1	1	2	2	test	id-1344_AU2-33_AU20-100_AU24-100	emotion	Bang	0.2885967129178293	3.45329234547512
id-1273_AU16Open-33_AU17-100_AU22-100	1	1	1	2	3	test_extra	id-1273_AU16Open-33_AU17-100_AU22-100	emotion	Verrassing	0.26015540016444155	2.7283026009924924
id-1362_AU5-33_AU6-66_AU7-33	1	1	1	2	4	test	id-1362_AU5-33_AU6-66_AU7-33	emotion	Geen van allen	0.0	1.511444975943732
id-1362_AU12-66_AU17-100_AU22-100	1	1	1	2	5	train	id-1362_AU12-66_AU17-100_AU22-100	emotion	Blij	0.4693115478746394	1.9781710677600584
id-1354_AU14-100_AU2-100_AU20-100_AU4-66	1	1	1	2	6	test_extra	id-1354_AU14-100_AU2-100_AU20-100_AU4-66	emotion	Bang	0.5981777139167505	2.770003842611686
id-1360_AU1-33_AU15-33_AU26-33	1	1	1	2	7	train	id-1360_AU1-33_AU15-33_AU26-33	emotion	Bang	0.26436168419548306	1.7449580436909855
id-1344_AU13-66_AU14-66_AU24-33_AU9-33	1	1	1	2	8	test	id-1344_AU13-66_AU14-66_AU24-33_AU9-33	emotion	Boos	0.3605853420865064	1.0448876209645732
id-1307_AU1-33_AU16Open-33_AU22-100_AU27i-33	1	1	1	2	9	train	id-1307_AU1-33_AU16Open-33_AU22-100_AU27i-33	emotion	Verrassing	0.500502829169721	0.8947399083147047
id-1290_AU24-100_AU9-33	1	1	1	2	10	train	id-1290_AU24-100_AU9-33	emotion	Walging	0.2088966099933521	6.303774301953126
id-1306_AU11-33_AU6-66	1	1	1	2	11	test_extra	id-1306_AU11-33_AU6-66	emotion	Geen van allen	0.0	1.0530600380157011
id-1260_AU11-66_AU14-66_AU43-33	1	1	1	2	12	train	id-1260_AU11-66_AU14-66_AU43-33	emotion	Verdrietig	0.25303130485245795	2.3198749355162818
id-1269_AU11-100_AU25-33_AU43-66	1	1	1	2	13	test_extra	id-1269_AU11-100_AU25-33_AU43-66	emotion	Boos	0.11221644762218716	2.6365480970923727
id-1344_AU1-33_AU11-33_AU4-33_AU7-66	1	1	1	2	14	test_extra	id-1344_AU1-33_AU11-33_AU4-33_AU7-66	emotion	Verdrietig	0.2346180939575635	2.5365128102653216
id-1347_AU10Open-100_AU25-100	1	1	1	2	15	test_extra	id-1347_AU10Open-100_AU25-100	emotion	Walging	0.38391725580595787	2.9367146303893605
id-1354_AU16Open-66_AU27i-33_AU5-100	1	1	1	2	16	train	id-1354_AU16Open-66_AU27i-33_AU5-100	emotion	Bang	0.7790241608060984	1.3197916235894809
id-1367_AU14-100_AU4-66_AU5-100	1	1	1	2	17	test_extra	id-1367_AU14-100_AU4-66_AU5-100	emotion	Geen van allen	0.0	6.445493322820767
id-1335_AU1-66_AU20-100_AU4-66_AU5-33	1	1	1	2	18	test_extra	id-1335_AU1-66_AU20-100_AU4-66_AU5-33	emotion	Bang	0.4798758596265579	2.2282004231399237
id-1380_AU13-66_AU20-66_AU22-100_AU5-100	1	1	1	2	19	test_extra	id-1380_AU13-66_AU20-66_AU22-100_AU5-100	emotion	Walging	0.2689774502146429	5.286909372018272
id-1293_AU24-33_AU27i-33_AU4-33	1	1	1	2	20	train	id-1293_AU24-33_AU27i-33_AU4-33	emotion	Verrassing	0.471929661900497	1.1362337153104818
id-1367_AU25-66_AU4-66_AU6-33	1	1	1	2	21	test	id-1367_AU25-66_AU4-66_AU6-33	emotion	Walging	0.378081095956024	4.995096368656505
id-1295_AU24-100_AU25-100	1	1	1	2	22	train	id-1295_AU24-100_AU25-100	emotion	Geen van allen	0.0	1.0114079987297373
id-1309_AU11-66_AU27i-33_AU7-66_AU9-33	1	1	1	2	23	train	id-1309_AU11-66_AU27i-33_AU7-66_AU9-33	emotion	Boos	0.483078177766819	5.2202821678367854
id-1291_AU4-100_AU43-33_AU7-66	1	1	1	2	24	test	id-1291_AU4-100_AU43-33_AU7-66	emotion	Verdrietig	0.4374086321714196	1.2530666184502481
id-1339_AU11-100_AU20-100_AU4-33	1	1	1	2	25	test_extra	id-1339_AU11-100_AU20-100_AU4-33	emotion	Bang	0.3366614689339266	7.445474305967764
id-1345_AU11-33_AU25-33_AU9-66	1	1	1	2	26	train	id-1345_AU11-33_AU25-33_AU9-66	emotion	Walging	0.4804663379268829	2.2366188518590207
id-1354_AU1-66_AU10Open-100	1	1	1	2	27	test	id-1354_AU1-66_AU10Open-100	emotion	Bang	0.7096425478367522	1.3615055431109797
id-1370_AU2-33_AU25-66_AU4-100	1	1	1	2	28	test_extra	id-1370_AU2-33_AU25-66_AU4-100	emotion	Blij	0.7528728456829615	2.0865475084751783
id-1367_AU11-33_AU13-33_AU14-66_AU5-33	1	1	1	2	29	test_extra	id-1367_AU11-33_AU13-33_AU14-66_AU5-33	emotion	Blij	0.3611378874817461	1.1530210685600648
id-1377_AU13-66_AU14-100_AU9-66	1	1	1	2	30	test_extra	id-1377_AU13-66_AU14-100_AU9-66	emotion	Blij	0.4438633186199264	1.9949363856089803
id-1302_AU20-66_AU4-33_AU5-33	1	1	1	2	31	test_extra	id-1302_AU20-66_AU4-33_AU5-33	emotion	Bang	0.6855043957794948	1.4781522018347455
id-1366_AU11-66_AU14-66_AU9-33	1	1	1	2	32	test_extra	id-1366_AU11-66_AU14-66_AU9-33	emotion	Walging	0.34886459666840514	2.4450139773866795
id-1302_AU1-33_AU22-33_AU24-66_AU43-100_AU9-66	1	1	1	2	33	test_extra	id-1302_AU1-33_AU22-33_AU24-66_AU43-100_AU9-66	emotion	Geen van allen	0.0	7.128820764954527
id-1260_AU9-33	1	1	1	2	34	train	id-1260_AU9-33	emotion	Walging	0.4771261437056041	1.2864170468278644
id-1380_AU1-100_AU15-66_AU7-66	1	1	1	2	35	test_extra	id-1380_AU1-100_AU15-66_AU7-66	emotion	Walging	0.6452474982410662	1.8801343616119084
id-1273_AU1-33_AU13-33_AU26-33	1	1	1	2	36	test	id-1273_AU1-33_AU13-33_AU26-33	emotion	Verrassing	0.4994172399920735	0.7864063309821177
id-1380_AU12-33_AU13-33_AU22-33_AU9-33	1	1	1	3	1	test_extra	id-1380_AU12-33_AU13-33_AU22-33_AU9-33	emotion	Boos	0.4906374048215901	2.861641528701512
id-1294_AU11-66_AU20-33_AU25-33	1	1	1	3	2	test	id-1294_AU11-66_AU20-33_AU25-33	emotion	Bang	0.5834489081577733	0.9613408511281704
id-1355_AU15-100_AU17-66	1	1	1	3	3	test_extra	id-1355_AU15-100_AU17-66	emotion	Verdrietig	0.6698805545856718	1.5615220847539604
id-1378_AU14-100_AU22-33_AU4-33	1	1	1	3	4	test_extra	id-1378_AU14-100_AU22-33_AU4-33	emotion	Verrassing	0.5448078367552068	1.6448868361421771
id-1297_AU11-100_AU24-33	1	1	1	3	5	test	id-1297_AU11-100_AU24-33	emotion	Walging	0.5745796240017458	1.5114793873913186
id-1309_AU26-33_AU5-66	1	1	1	3	6	train	id-1309_AU26-33_AU5-66	emotion	Bang	0.7383960356028489	2.3780314900968733
id-1270_AU12-100_AU13-100_AU14-66_AU2-100_AU25-66	1	1	1	3	7	test_extra	id-1270_AU12-100_AU13-100_AU14-66_AU2-100_AU25-66	emotion	Blij	0.9856079050758596	1.8616213044292635
id-1280_AU11-33_AU16Open-66_AU25-66_AU7-33	1	1	1	3	8	train	id-1280_AU11-33_AU16Open-66_AU25-66_AU7-33	emotion	Bang	0.3792422723187072	1.4114383653231926
id-1297_AU20-33_AU22-33_AU26-66	1	1	1	3	9	test_extra	id-1297_AU20-33_AU22-33_AU26-66	emotion	Bang	0.6544246037948139	1.119814624925766
id-1366_AU14-33_AU2-100_AU26-100_AU27i-100	1	1	1	3	10	test	id-1366_AU14-33_AU2-100_AU26-100_AU27i-100	emotion	Bang	0.8920039759387767	1.5031937747876327
id-1266_AU17-33_AU24-33_AU26-66	1	1	1	3	11	test_extra	id-1266_AU17-33_AU24-33_AU26-66	emotion	Walging	0.3824914858101915	1.971484078215326
id-1323_AU12-66_AU16Open-33_AU7-66_AU9-100	1	1	1	3	12	test	id-1323_AU12-66_AU16Open-33_AU7-66_AU9-100	emotion	Boos	0.29110664707786243	1.828144097033146
id-1342_AU22-33	1	1	1	3	13	test_extra	id-1342_AU22-33	emotion	Geen van allen	0.0	1.1114647172480543
id-1270_AU14-66_AU15-100_AU43-33	1	1	1	3	14	test_extra	id-1270_AU14-66_AU15-100_AU43-33	emotion	Verdrietig	0.4018973632418684	1.112793180254812
id-1310_AU13-66_AU14-100_AU4-66_AU9-33	1	1	1	3	15	train	id-1310_AU13-66_AU14-100_AU4-66_AU9-33	emotion	Boos	0.33269187892851965	2.9615922961820607
id-1335_AU10Open-100_AU27i-66_AU6-66_AU7-33	1	1	1	3	16	train	id-1335_AU10Open-100_AU27i-66_AU6-66_AU7-33	emotion	Walging	0.5028864308745034	3.370049543429559
id-1260_AU17-33_AU24-100_AU6-33	1	1	1	3	17	test_extra	id-1260_AU17-33_AU24-100_AU6-33	emotion	Geen van allen	0.0	3.545042925262805
id-1380_AU1-66_AU14-100_AU17-66_AU9-33	1	1	1	3	18	train	id-1380_AU1-66_AU14-100_AU17-66_AU9-33	emotion	Walging	0.5532552050249823	1.7366775626192066
id-1290_AU12-66_AU15-33_AU24-33	1	1	1	3	19	test_extra	id-1290_AU12-66_AU15-33_AU24-33	emotion	Boos	0.3339081490156081	1.1613625243030583
id-1291_AU10Open-66_AU15-33_AU20-100_AU4-100	1	1	1	3	20	test_extra	id-1291_AU10Open-66_AU15-33_AU20-100_AU4-100	emotion	Walging	0.6814846985441746	2.06973600684114
id-1335_AU1-33_AU14-66_AU27i-66_AU7-100	1	1	1	3	21	test_extra	id-1335_AU1-33_AU14-66_AU27i-66_AU7-100	emotion	Blij	0.6538184402493522	2.328385731806065
id-1376_AU16Open-66_AU17-66_AU6-33	1	1	1	3	22	test_extra	id-1376_AU16Open-66_AU17-66_AU6-33	emotion	Geen van allen	0.0	0.8862457140389779
id-1318_AU22-100_AU26-100_AU27i-33_AU4-33_AU6-33	1	1	1	3	23	test	id-1318_AU22-100_AU26-100_AU27i-33_AU4-33_AU6-33	emotion	Bang	0.3709585685599719	1.953262612776598
id-1311_AU15-66_AU16Open-100_AU17-66_AU20-100	1	1	1	3	24	test_extra	id-1311_AU15-66_AU16Open-100_AU17-66_AU20-100	emotion	Bang	0.22182793342805107	1.119829415811182
id-1342_AU14-33_AU20-33_AU43-100	1	1	1	3	25	test_extra	id-1342_AU14-33_AU20-33_AU43-100	emotion	Blij	0.3399258608929469	1.4116614360259518
id-1318_AU10Open-66	1	1	1	3	26	test_extra	id-1318_AU10Open-66	emotion	Boos	0.3701353382058135	1.7282244205971438
id-1366_AU15-100_AU16Open-33_AU27i-33	1	1	1	3	27	test_extra	id-1366_AU15-100_AU16Open-33_AU27i-33	emotion	Verrassing	0.6677331135167691	1.3447003804276392
id-1273_AU13-33_AU4-100_AU9-100	1	1	1	3	28	test_extra	id-1273_AU13-33_AU4-100_AU9-100	emotion	Walging	0.4200631308940059	1.286435761825942
id-1273_AU12-100_AU16Open-33_AU20-100_AU22-66_AU5-66	1	1	1	3	29	test	id-1273_AU12-100_AU16Open-33_AU20-100_AU22-66_AU5-66	emotion	Blij	0.8262214192071092	1.5448328343168214
id-1342_AU1-100_AU27i-33	1	1	1	3	30	test_extra	id-1342_AU1-100_AU27i-33	emotion	Verrassing	0.8145312302051161	1.2365062600160854
id-1380_AU17-33_AU27i-100_AU6-100	1	1	1	3	31	train	id-1380_AU17-33_AU27i-100_AU6-100	emotion	Bang	0.2161200246040144	2.936680520796017
id-1311_AU27i-100_AU4-66	1	1	1	3	32	test_extra	id-1311_AU27i-100_AU4-66	emotion	Boos	0.3539090540384689	1.1113768774989694
id-1347_AU1-100_AU11-66_AU25-33_AU5-33	1	1	1	3	33	test_extra	id-1347_AU1-100_AU11-66_AU25-33_AU5-33	emotion	Verdrietig	0.4374335900072622	1.7031593029687428
id-1370_AU10Open-100_AU2-33_AU27i-66_AU5-66	1	1	1	3	34	test	id-1370_AU10Open-100_AU2-33_AU27i-66_AU5-66	emotion	Verrassing	0.6050070507359075	2.444915572719765
id-1315_AU12-66_AU22-100	1	1	1	3	35	test_extra	id-1315_AU12-66_AU22-100	emotion	Blij	0.23240783373955706	0.7780624604006334
id-1362_AU7-100	1	1	1	3	36	train	id-1362_AU7-100	emotion	Walging	0.21210780673321208	5.628557396635189
id-1366_AU16Open-100_AU43-100	1	1	1	4	1	train	id-1366_AU16Open-100_AU43-100	emotion	Geen van allen	0.0	2.4616211233164904
id-1318_AU13-33_AU20-66_AU5-100_AU6-66	1	1	1	4	2	train	id-1318_AU13-33_AU20-66_AU5-100_AU6-66	emotion	Bang	0.7459220188382933	0.9446582414966542
id-1360_AU12-100_AU43-66_AU7-33	1	1	1	4	3	train	id-1360_AU12-100_AU43-66_AU7-33	emotion	Boos	0.2793516538303444	1.1714622842982862
id-1356_AU6-33	1	1	1	4	4	test	id-1356_AU6-33	emotion	Geen van allen	0.0	0.7696911210314283
id-1302_AU2-33_AU43-66	1	1	1	4	5	test_extra	id-1302_AU2-33_AU43-66	emotion	Walging	0.23346425365269155	4.495198848363543
id-1289_AU20-33_AU26-66_AU9-66	1	1	1	4	6	train	id-1289_AU20-33_AU26-66_AU9-66	emotion	Boos	0.7133052503981663	1.0114113191330034
id-1318_AU2-66_AU22-100_AU5-33_AU7-66	1	1	1	4	7	train	id-1318_AU2-66_AU22-100_AU5-33_AU7-66	emotion	Boos	0.6301021993500151	1.2030175821369085
id-1355_AU13-66_AU2-66_AU6-33	1	1	1	4	8	test_extra	id-1355_AU13-66_AU2-66_AU6-33	emotion	Bang	0.2673015118434912	1.4197749913896591
id-1285_AU26-33_AU5-100	1	1	1	4	9	train	id-1285_AU26-33_AU5-100	emotion	Verrassing	0.6789686277168349	1.0780681050855492
id-1273_AU10Open-66_AU12-66_AU25-66	1	1	1	4	10	test_extra	id-1273_AU10Open-66_AU12-66_AU25-66	emotion	Blij	0.3850570407431104	1.0030979358866716
id-1302_AU15-66_AU24-100_AU25-100_AU43-33	1	1	1	4	11	test	id-1302_AU15-66_AU24-100_AU25-100_AU43-33	emotion	Verdrietig	0.3528170204148021	0.8613653315528609
id-1339_AU22-33_AU25-100_AU27i-100_AU4-66	1	1	1	4	12	test_extra	id-1339_AU22-33_AU25-100_AU27i-100_AU4-66	emotion	Verrassing	0.6130601472963785	0.9531442856923604
id-1310_AU14-100_AU43-100_AU9-33	1	1	1	4	13	test_extra	id-1310_AU14-100_AU43-100_AU9-33	emotion	Boos	0.4382400051203469	1.744735274843606
id-1285_AU16Open-33_AU5-33	1	1	1	4	14	test	id-1285_AU16Open-33_AU5-33	emotion	Bang	0.3756122911429563	1.9050690779631625
id-1366_AU22-66_AU43-66	1	1	1	4	15	test_extra	id-1366_AU22-66_AU43-66	emotion	Geen van allen	0.0	0.9863917815805509
id-1376_AU10Open-100_AU11-66_AU25-33_AU27i-66_AU9-100	1	1	1	4	16	train	id-1376_AU10Open-100_AU11-66_AU25-33_AU27i-66_AU9-100	emotion	Boos	0.5068005570242679	1.4863237133213258
id-1296_AU22-66_AU24-66_AU25-66_AU5-66_AU6-100	1	1	1	4	17	test_extra	id-1296_AU22-66_AU24-66_AU25-66_AU5-66_AU6-100	emotion	Walging	0.5826445088184306	2.403221575615589
id-1307_AU17-66_AU25-33_AU4-100	1	1	1	4	18	test_extra	id-1307_AU17-66_AU25-33_AU4-100	emotion	Boos	0.3607949964081033	1.1281446101861548
id-1360_AU1-100_AU17-100_AU2-66	1	1	1	4	19	train	id-1360_AU1-100_AU17-100_AU2-66	emotion	Bang	0.3848839452320299	1.2279848988077902
id-1264_AU14-33_AU16Open-100_AU20-33	1	1	1	4	20	train	id-1264_AU14-33_AU16Open-100_AU20-33	emotion	Verrassing	0.4932318354348628	1.3198109422974085
id-1380_AU11-66_AU13-33	1	1	1	4	21	train	id-1380_AU11-66_AU13-33	emotion	Walging	0.4374003126636572	1.5615863798284408
id-1362_AU17-33_AU5-33	1	1	1	4	22	train	id-1362_AU17-33_AU5-33	emotion	Bang	0.3793803431228335	2.8199517575644686
id-1290_AU11-66_AU16Open-100_AU43-33_AU6-33	1	1	1	4	23	train	id-1290_AU11-66_AU16Open-100_AU43-33_AU6-33	emotion	Boos	0.4186481338898307	0.9613369270150542
id-1310_AU12-33_AU14-33_AU22-100_AU6-100	1	1	1	4	24	test	id-1310_AU12-33_AU14-33_AU22-100_AU6-100	emotion	Blij	0.3403621683495777	0.7777316275314661
id-1293_AU6-33_AU7-66	1	1	1	4	25	train	id-1293_AU6-33_AU7-66	emotion	Walging	0.4369508889660021	1.5948534962785743
id-1264_AU10Open-33_AU25-66_AU4-66	1	1	1	4	26	test	id-1264_AU10Open-33_AU25-66_AU4-66	emotion	Verrassing	0.3475273395746281	3.1033276172092883
id-1266_AU14-66_AU16Open-66_AU27i-33_AU43-66	1	1	1	4	27	train	id-1266_AU14-66_AU16Open-66_AU27i-33_AU43-66	emotion	Geen van allen	0.0	2.65325123285038
id-1361_AU16Open-33_AU24-66_AU25-100	1	1	1	4	28	test_extra	id-1361_AU16Open-33_AU24-66_AU25-100	emotion	Verrassing	0.3939216194640834	2.569897650090752
id-1293_AU22-66_AU25-100_AU5-33_AU9-33	1	1	1	4	29	test	id-1293_AU22-66_AU25-100_AU5-33_AU9-33	emotion	Walging	0.4503237866981504	5.020244798211934
id-1342_AU14-100_AU25-66	1	1	1	4	30	train	id-1342_AU14-100_AU25-66	emotion	Blij	0.3177651946725195	1.2197518089406003
id-1378_AU12-33_AU9-66	1	1	1	4	31	test_extra	id-1378_AU12-33_AU9-66	emotion	Blij	0.475672549761574	3.961890830586527
id-1307_AU10Open-33_AU12-100_AU17-33	1	1	1	4	32	train	id-1307_AU10Open-33_AU12-100_AU17-33	emotion	Blij	0.22151734475740809	1.7448327739457454
id-1273_AU1-33_AU25-100_AU4-33	1	1	1	4	33	test_extra	id-1273_AU1-33_AU25-100_AU4-33	emotion	Verrassing	0.22781006238749044	1.036342715081446
id-1373_AU11-33_AU13-100_AU16Open-66_AU43-33	1	1	1	4	34	test	id-1373_AU11-33_AU13-100_AU16Open-66_AU43-33	emotion	Geen van allen	0.0	4.336935467366402
id-1297_AU10Open-100_AU6-100	1	1	1	4	35	test_extra	id-1297_AU10Open-100_AU6-100	emotion	Walging	0.478296010583889	1.4114139150838128
id-1285_AU11-100_AU16Open-33_AU27i-33_AU9-100	1	1	1	4	36	test_extra	id-1285_AU11-100_AU16Open-33_AU27i-33_AU9-100	emotion	Verrassing	0.6211202326804036	1.7944945305416695
id-1306_AU11-33_AU16Open-66	1	1	2	5	1	test_extra	id-1306_AU11-33_AU16Open-66	valence	-0.50272767729263		3.1116065890073514
id-1306_AU11-33_AU16Open-66	1	1	2	5	1	test_extra	id-1306_AU11-33_AU16Open-66	arousal	-0.9021923722224496		3.1116065890073514
id-1380_AU10Open-33_AU13-33_AU16Open-100_AU22-33_AU43-66	1	1	2	5	2	test	id-1380_AU10Open-33_AU13-33_AU16Open-100_AU22-33_AU43-66	valence	-0.3750076727912592		3.2857094991595663
id-1380_AU10Open-33_AU13-33_AU16Open-100_AU22-33_AU43-66	1	1	2	5	2	test	id-1380_AU10Open-33_AU13-33_AU16Open-100_AU22-33_AU43-66	arousal	0.4809881020583541		3.2857094991595663
id-1310_AU1-100_AU24-100_AU5-33	1	1	2	5	3	train	id-1310_AU1-100_AU24-100_AU5-33	valence	-0.5924034251340181		4.294197354484368
id-1310_AU1-100_AU24-100_AU5-33	1	1	2	5	3	train	id-1310_AU1-100_AU24-100_AU5-33	arousal	0.3097889470884315		4.294197354484368
id-1273_AU16Open-33_AU22-100_AU24-100_AU9-100	1	1	2	5	4	train	id-1273_AU16Open-33_AU22-100_AU24-100_AU9-100	valence	-0.23098298686418134		3.727520495187037
id-1273_AU16Open-33_AU22-100_AU24-100_AU9-100	1	1	2	5	4	train	id-1273_AU16Open-33_AU22-100_AU24-100_AU9-100	arousal	0.8478434341367599		3.727520495187037
id-1269_AU14-33_AU25-66	1	1	2	5	5	test_extra	id-1269_AU14-33_AU25-66	valence	0.3043540532798626		1.944450263534236
id-1269_AU14-33_AU25-66	1	1	2	5	5	test_extra	id-1269_AU14-33_AU25-66	arousal	-0.836973646519622		1.944450263534236
id-1356_AU13-100_AU15-33_AU16Open-100	1	1	2	5	6	test_extra	id-1356_AU13-100_AU15-33_AU16Open-100	valence	-0.5407719339526129		2.9944392307411363
id-1356_AU13-100_AU15-33_AU16Open-100	1	1	2	5	6	test_extra	id-1356_AU13-100_AU15-33_AU16Open-100	arousal	-0.3722902258869748		2.9944392307411363
id-1345_AU17-66_AU25-66_AU6-100	1	1	2	5	7	test	id-1345_AU17-66_AU25-66_AU6-100	valence	-0.5543591684740353		4.044088309434756
id-1345_AU17-66_AU25-66_AU6-100	1	1	2	5	7	test	id-1345_AU17-66_AU25-66_AU6-100	arousal	-0.7500153455825184		4.044088309434756
id-1294_AU13-33	1	1	2	5	8	train	id-1294_AU13-33	valence	0.1521770266399313		3.294023486115293
id-1294_AU13-33	1	1	2	5	8	train	id-1294_AU13-33	arousal	-0.9945855669681224		3.294023486115293
id-1367_AU17-66	1	1	2	5	9	test_extra	id-1367_AU17-66	valence	-0.3179412878012849		4.969664195582482
id-1367_AU17-66	1	1	2	5	9	test_extra	id-1367_AU17-66	arousal	-0.7907770491467857		4.969664195582482
id-1279_AU1-100_AU15-66_AU16Open-66_AU27i-100_AU43-33	1	1	2	5	10	test_extra	id-1279_AU1-100_AU15-66_AU16Open-66_AU27i-100_AU43-33	valence	-0.2472876682898883		2.960725972885484
id-1279_AU1-100_AU15-66_AU16Open-66_AU27i-100_AU43-33	1	1	2	5	10	test_extra	id-1279_AU1-100_AU15-66_AU16Open-66_AU27i-100_AU43-33	arousal	0.7853421553382167		2.960725972885484
id-1378_AU14-66_AU2-66_AU5-33_AU7-66	1	1	2	5	11	test_extra	id-1378_AU14-66_AU2-66_AU5-33_AU7-66	valence	0.6576221508368458		1.9523501056942223
id-1378_AU14-66_AU2-66_AU5-33_AU7-66	1	1	2	5	11	test_extra	id-1378_AU14-66_AU2-66_AU5-33_AU7-66	arousal	-0.5135974649097681		1.9523501056942223
id-1355_AU13-66_AU14-100_AU15-100_AU7-33	1	1	2	5	12	test	id-1355_AU13-66_AU14-100_AU15-100_AU7-33	valence	-0.5353370401440439		5.435977953732163
id-1355_AU13-66_AU14-100_AU15-100_AU7-33	1	1	2	5	12	test	id-1355_AU13-66_AU14-100_AU15-100_AU7-33	arousal	0.1711991549699227		5.435977953732163
id-1310_AU2-100_AU25-66_AU6-66_AU7-100	1	1	2	5	13	test_extra	id-1310_AU2-100_AU25-66_AU6-66_AU7-100	valence	-0.8342561996153375		3.6691659238522334
id-1310_AU2-100_AU25-66_AU6-66_AU7-100	1	1	2	5	13	test_extra	id-1310_AU2-100_AU25-66_AU6-66_AU7-100	arousal	-0.7934944960510701		3.6691659238522334
id-1363_AU14-33_AU27i-66	1	1	2	5	14	test_extra	id-1363_AU14-33_AU27i-66	valence	-0.2608749028113107		3.4440697755499063
id-1363_AU14-33_AU27i-66	1	1	2	5	14	test_extra	id-1363_AU14-33_AU27i-66	arousal	-0.7690374739125099		3.4440697755499063
id-1294_AU10Open-66_AU27i-66_AU43-33_AU7-66	1	1	2	5	15	train	id-1294_AU10Open-66_AU27i-66_AU43-33_AU7-66	valence	-0.2907668187584401		1.6436996411853215
id-1294_AU10Open-66_AU27i-66_AU43-33_AU7-66	1	1	2	5	15	train	id-1294_AU10Open-66_AU27i-66_AU43-33_AU7-66	arousal	0.14945957973564675		1.6436996411853215
id-1323_AU26-100	1	1	2	5	16	test_extra	id-1323_AU26-100	valence	-0.28261447804558665		4.819211911431921
id-1323_AU26-100	1	1	2	5	16	test_extra	id-1323_AU26-100	arousal	0.4864229958669232		4.819211911431921
id-1309_AU12-66_AU16Open-33_AU2-33_AU24-100_AU26-100	1	1	2	5	17	train	id-1309_AU12-66_AU16Open-33_AU2-33_AU24-100_AU26-100	valence	0.3614204382698367		1.9438927377054824
id-1309_AU12-66_AU16Open-33_AU2-33_AU24-100_AU26-100	1	1	2	5	17	train	id-1309_AU12-66_AU16Open-33_AU2-33_AU24-100_AU26-100	arousal	0.836973646519622		1.9438927377054824
id-1367_AU43-100	1	1	2	5	18	test_extra	id-1367_AU43-100	valence	0.7799072615296476		3.5189729329808865
id-1367_AU43-100	1	1	2	5	18	test_extra	id-1367_AU43-100	arousal	-0.8559957748496133		3.5189729329808865
id-1294_AU11-100_AU2-100_AU24-33	1	1	2	5	19	test_extra	id-1294_AU11-100_AU2-100_AU24-33	valence	0.4918578896754921		6.252685073974135
id-1294_AU11-100_AU2-100_AU24-33	1	1	2	5	19	test_extra	id-1294_AU11-100_AU2-100_AU24-33	arousal	-0.1711991549699227		6.252685073974135
id-1339_AU10Open-100_AU12-33_AU20-100_AU27i-33	1	1	2	5	20	test	id-1339_AU10Open-100_AU12-33_AU20-100_AU27i-33	valence	0.7907770491467857		2.510550278295341
id-1339_AU10Open-100_AU12-33_AU20-100_AU27i-33	1	1	2	5	20	test	id-1339_AU10Open-100_AU12-33_AU20-100_AU27i-33	arousal	0.5597940622826043		2.510550278295341
id-1376_AU13-66_AU16Open-100	1	1	2	5	21	train	id-1376_AU13-66_AU16Open-100	valence	0.5054451241969146		1.1354817949859353
id-1376_AU13-66_AU16Open-100	1	1	2	5	21	train	id-1376_AU13-66_AU16Open-100	arousal	-0.7690374739125099		1.1354817949859353
id-1377_AU1-100_AU13-33_AU26-33_AU9-33	1	1	2	5	22	test_extra	id-1377_AU1-100_AU13-33_AU26-33_AU9-33	valence	-0.36685533207840576		4.652833163942431
id-1377_AU1-100_AU13-33_AU26-33_AU9-33	1	1	2	5	22	test_extra	id-1377_AU1-100_AU13-33_AU26-33_AU9-33	arousal	0.11413276997994845		4.652833163942431
id-1347_AU13-100_AU14-66_AU17-100_AU27i-66_AU7-100	1	1	2	5	23	test	id-1347_AU13-100_AU14-66_AU17-100_AU27i-66_AU7-100	valence	-0.7581676862953719		7.202773985307887
id-1347_AU13-100_AU14-66_AU17-100_AU27i-66_AU7-100	1	1	2	5	23	test	id-1347_AU13-100_AU14-66_AU17-100_AU27i-66_AU7-100	arousal	0.3858774604083972		7.202773985307887
id-1293_AU13-100	1	1	2	5	24	test_extra	id-1293_AU13-100	valence	-0.1847863894913451		3.827790021343844
id-1293_AU13-100	1	1	2	5	24	test_extra	id-1293_AU13-100	arousal	-0.6766442791668373		3.827790021343844
id-1279_AU22-33_AU26-33_AU4-33	1	1	2	5	25	test	id-1279_AU22-33_AU26-33_AU4-33	valence	0.7636025801039408		4.228476016579407
id-1279_AU22-33_AU26-33_AU4-33	1	1	2	5	25	test	id-1279_AU22-33_AU26-33_AU4-33	arousal	-0.7554502393910874		4.228476016579407
id-1356_AU13-100_AU25-33_AU26-100	1	1	2	5	26	test_extra	id-1356_AU13-100_AU25-33_AU26-100	valence	0.28261447804558665		5.785967434092072
id-1356_AU13-100_AU25-33_AU26-100	1	1	2	5	26	test_extra	id-1356_AU13-100_AU25-33_AU26-100	arousal	0.2282655399598969		5.785967434092072
id-1273_AU11-100_AU15-33_AU20-33	1	1	2	5	27	test_extra	id-1273_AU11-100_AU15-33_AU20-33	valence	0.5163149118140525		1.368801675656414
id-1273_AU11-100_AU15-33_AU20-33	1	1	2	5	27	test_extra	id-1273_AU11-100_AU15-33_AU20-33	arousal	-0.9375191819781479		1.368801675656414
id-1296_AU1-66_AU17-100_AU27i-33_AU4-66_AU5-100	1	1	2	5	28	test	id-1296_AU1-66_AU17-100_AU27i-33_AU4-66_AU5-100	valence	-0.8723004562753204		2.6449900704860743
id-1296_AU1-66_AU17-100_AU27i-33_AU4-66_AU5-100	1	1	2	5	28	test	id-1296_AU1-66_AU17-100_AU27i-33_AU4-66_AU5-100	arousal	-0.42120427016409545		2.6449900704860743
id-1370_AU2-33_AU27i-66	1	1	2	5	29	test_extra	id-1370_AU2-33_AU27i-66	valence	0.6603395977411303		6.20290800884186
id-1370_AU2-33_AU27i-66	1	1	2	5	29	test_extra	id-1370_AU2-33_AU27i-66	arousal	0.3097889470884315		6.20290800884186
id-1354_AU10Open-33_AU17-66_AU6-66_AU7-100	1	1	2	5	30	train	id-1354_AU10Open-33_AU17-66_AU6-66_AU7-100	valence	-0.864148115562467		2.586039637762042
id-1354_AU10Open-33_AU17-66_AU6-66_AU7-100	1	1	2	5	30	train	id-1354_AU10Open-33_AU17-66_AU6-66_AU7-100	arousal	0.402182141834104		2.586039637762042
id-1280_AU17-66_AU43-66_AU7-33	1	1	2	5	31	test_extra	id-1280_AU17-66_AU43-66_AU7-33	valence	-0.4347915046855179		4.710832150314218
id-1280_AU17-66_AU43-66_AU7-33	1	1	2	5	31	test_extra	id-1280_AU17-66_AU43-66_AU7-33	arousal	-0.625012787985432		4.710832150314218
id-1341_AU12-33_AU2-66_AU20-33_AU24-66_AU5-33	1	1	2	5	32	test_extra	id-1341_AU12-33_AU2-66_AU20-33_AU24-66_AU5-33	valence	0.5570766153783199		2.827330296472609
id-1341_AU12-33_AU2-66_AU20-33_AU24-66_AU5-33	1	1	2	5	32	test_extra	id-1341_AU12-33_AU2-66_AU20-33_AU24-66_AU5-33	arousal	0.17663404877849165		2.827330296472609
id-1362_AU13-100_AU15-66_AU43-100_AU7-33	1	1	2	5	33	train	id-1362_AU13-100_AU15-66_AU43-100_AU7-33	valence	0.3451157568441299		3.2856663339221086
id-1362_AU13-100_AU15-66_AU43-100_AU7-33	1	1	2	5	33	train	id-1362_AU13-100_AU15-66_AU43-100_AU7-33	arousal	-0.5543591684740353		3.2856663339221086
id-1294_AU13-66_AU15-33_AU24-100_AU4-66	1	1	2	5	34	train	id-1294_AU13-66_AU15-33_AU24-100_AU4-66	valence	-0.20380851782133647		2.560572449530809
id-1294_AU13-66_AU15-33_AU24-100_AU4-66	1	1	2	5	34	train	id-1294_AU13-66_AU15-33_AU24-100_AU4-66	arousal	-0.6549047039325613		2.560572449530809
id-1279_AU22-66_AU25-66_AU5-66	1	1	2	5	35	test_extra	id-1279_AU22-66_AU25-66_AU5-66	valence	0.6793617260711217		3.860693100897152
id-1279_AU22-66_AU25-66_AU5-66	1	1	2	5	35	test_extra	id-1279_AU22-66_AU25-66_AU5-66	arousal	-0.8695830093710358		3.860693100897152
id-1279_AU12-100_AU15-100_AU26-100	1	1	2	5	36	train	id-1279_AU12-100_AU15-100_AU26-100	valence	0.2798970311413021		2.6773643004166843
id-1279_AU12-100_AU15-100_AU26-100	1	1	2	5	36	train	id-1279_AU12-100_AU15-100_AU26-100	arousal	0.6059906596554406		2.6773643004166843
id-1356_AU22-100	1	1	2	6	1	test_extra	id-1356_AU22-100	valence	-0.5380544870483285		3.227296066137569
id-1356_AU22-100	1	1	2	6	1	test_extra	id-1356_AU22-100	arousal	-0.9918681200638376		3.227296066137569
id-1342_AU1-100_AU14-100_AU15-66_AU5-100_AU7-100	1	1	2	6	2	test	id-1342_AU1-100_AU14-100_AU15-66_AU5-100_AU7-100	valence	0.5190323587183371		1.8271712189894056
id-1342_AU1-100_AU14-100_AU15-66_AU5-100_AU7-100	1	1	2	6	2	test	id-1342_AU1-100_AU14-100_AU15-66_AU5-100_AU7-100	arousal	-0.17391660187420716		1.8271712189894056
id-1296_AU12-100_AU9-33	1	1	2	6	3	test_extra	id-1296_AU12-100_AU9-33	valence	-0.7146885358268201		1.7104418520484614
id-1296_AU12-100_AU9-33	1	1	2	6	3	test_extra	id-1296_AU12-100_AU9-33	arousal	0.3423983099398454		1.7104418520484614
id-1361_AU12-33_AU13-100_AU4-100	1	1	2	6	4	train	id-1361_AU12-33_AU13-100_AU4-100	valence	-0.1847863894913451		4.8610948696455125
id-1361_AU12-33_AU13-100_AU4-100	1	1	2	6	4	train	id-1361_AU12-33_AU13-100_AU4-100	arousal	0.5760987437083112		4.8610948696455125
id-1370_AU1-33_AU26-66_AU7-100	1	1	2	6	5	train	id-1370_AU1-33_AU26-66_AU7-100	valence	0.20652596472562101		5.577604607028661
id-1370_AU1-33_AU26-66_AU7-100	1	1	2	6	5	train	id-1370_AU1-33_AU26-66_AU7-100	arousal	0.36685533207840576		5.577604607028661
id-1290_AU11-100_AU15-33	1	1	2	6	6	train	id-1290_AU11-100_AU15-33	valence	-0.7744723677210787		1.3103031195792028
id-1290_AU11-100_AU15-33	1	1	2	6	6	train	id-1290_AU11-100_AU15-33	arousal	-0.8097991774767771		1.3103031195792028
id-1363_AU13-100_AU20-66_AU22-66_AU5-66	1	1	2	6	7	test_extra	id-1363_AU13-100_AU20-66_AU22-66_AU5-66	valence	-0.6603395977411303		2.543836109743552
id-1363_AU13-100_AU20-66_AU22-66_AU5-66	1	1	2	6	7	test_extra	id-1363_AU13-100_AU20-66_AU22-66_AU5-66	arousal	-0.402182141834104		2.543836109743552
id-1269_AU1-66_AU16Open-33_AU20-66	1	1	2	6	8	test_extra	id-1269_AU1-66_AU16Open-33_AU20-66	valence	-0.5299021463354749		8.844700229500178
id-1269_AU1-66_AU16Open-33_AU20-66	1	1	2	6	8	test_extra	id-1269_AU1-66_AU16Open-33_AU20-66	arousal	-0.10869787617137948		8.844700229500178
id-1356_AU15-100	1	1	2	6	9	test_extra	id-1356_AU15-100	valence	-0.2771795842370177		1.7436959887418195
id-1356_AU15-100	1	1	2	6	9	test_extra	id-1356_AU15-100	arousal	-0.8505608810410444		1.7436959887418195
id-1345_AU17-100_AU20-33	1	1	2	6	10	test_extra	id-1345_AU17-100_AU20-33	valence	0.26902724352416424		1.3270793042006517
id-1345_AU17-100_AU20-33	1	1	2	6	10	test_extra	id-1345_AU17-100_AU20-33	arousal	-0.5380544870483285		1.3270793042006517
id-1294_AU16Open-66_AU7-100	1	1	2	6	11	test_extra	id-1294_AU16Open-66_AU7-100	valence	-0.14130723902279332		0.8020535786245091
id-1294_AU16Open-66_AU7-100	1	1	2	6	11	test_extra	id-1294_AU16Open-66_AU7-100	arousal	0.11956766378851742		0.8020535786245091
id-1266_AU13-66_AU17-100_AU2-100_AU9-33	1	1	2	6	12	test	id-1266_AU13-66_AU17-100_AU2-100_AU9-33	valence	-0.4565310799197938		2.7440096158866254
id-1266_AU13-66_AU17-100_AU2-100_AU9-33	1	1	2	6	12	test	id-1266_AU13-66_AU17-100_AU2-100_AU9-33	arousal	0.3423983099398454		2.7440096158866254
id-1335_AU11-66_AU17-66_AU25-66_AU6-33	1	1	2	6	13	train	id-1335_AU11-66_AU17-66_AU25-66_AU6-33	valence	-0.3722902258869748		2.043852560830601
id-1335_AU11-66_AU17-66_AU25-66_AU6-33	1	1	2	6	13	train	id-1335_AU11-66_AU17-66_AU25-66_AU6-33	arousal	-0.4674008675369317		2.043852560830601
id-1323_AU14-66_AU24-100_AU25-66	1	1	2	6	14	test_extra	id-1323_AU14-66_AU24-100_AU25-66	valence	-0.23370043376846586		2.0104921712445503
id-1323_AU14-66_AU24-100_AU25-66	1	1	2	6	14	test_extra	id-1323_AU14-66_AU24-100_AU25-66	arousal	-0.29891915947129355		2.0104921712445503
id-1280_AU15-100_AU26-66_AU43-66	1	1	2	6	15	test_extra	id-1280_AU15-100_AU26-66_AU43-66	valence	-0.2364178806727504		1.5938280954987931
id-1280_AU15-100_AU26-66_AU43-66	1	1	2	6	15	test_extra	id-1280_AU15-100_AU26-66_AU43-66	arousal	0.5760987437083112		1.5938280954987931
id-1269_AU10Open-66_AU20-66_AU26-66_AU43-66	1	1	2	6	16	test	id-1269_AU10Open-66_AU20-66_AU26-66_AU43-66	valence	-0.418486823259811		4.485769507894928
id-1269_AU10Open-66_AU20-66_AU26-66_AU43-66	1	1	2	6	16	test	id-1269_AU10Open-66_AU20-66_AU26-66_AU43-66	arousal	0.6521872570282768		4.485769507894928
id-1309_AU11-66_AU24-66	1	1	2	6	17	test	id-1309_AU11-66_AU24-66	valence	-0.28261447804558665		2.410478768891608
id-1309_AU11-66_AU24-66	1	1	2	6	17	test	id-1309_AU11-66_AU24-66	arousal	-0.7391455579653804		2.410478768891608
id-1260_AU14-100_AU17-33_AU2-66_AU27i-100	1	1	2	6	18	test_extra	id-1260_AU14-100_AU17-33_AU2-66_AU27i-100	valence	0.2282655399598969		3.0439938288805024
id-1260_AU14-100_AU17-33_AU2-66_AU27i-100	1	1	2	6	18	test_extra	id-1260_AU14-100_AU17-33_AU2-66_AU27i-100	arousal	0.2472876682898883		3.0439938288805024
id-1280_AU11-100_AU26-100_AU27i-100_AU43-66	1	1	2	6	19	test_extra	id-1280_AU11-100_AU26-100_AU27i-100_AU43-66	valence	-0.2092434116299055		2.5688474972162108
id-1280_AU11-100_AU26-100_AU27i-100_AU43-66	1	1	2	6	19	test_extra	id-1280_AU11-100_AU26-100_AU27i-100_AU43-66	arousal	0.5788161906125957		2.5688474972162108
id-1311_AU13-33_AU17-66_AU26-33_AU6-100	1	1	2	6	20	test_extra	id-1311_AU13-33_AU17-66_AU26-33_AU6-100	valence	0.6847966198796908		3.968953931221222
id-1311_AU13-33_AU17-66_AU26-33_AU6-100	1	1	2	6	20	test_extra	id-1311_AU13-33_AU17-66_AU26-33_AU6-100	arousal	-0.6304476817940009		3.968953931221222
id-1339_AU16Open-66_AU24-100_AU43-33_AU7-100	1	1	2	6	21	test_extra	id-1339_AU16Open-66_AU24-100_AU43-33_AU7-100	valence	-0.2092434116299055		5.702653394312165
id-1339_AU16Open-66_AU24-100_AU43-33_AU7-100	1	1	2	6	21	test_extra	id-1339_AU16Open-66_AU24-100_AU43-33_AU7-100	arousal	0.4674008675369317		5.702653394312165
id-1347_AU20-100_AU5-100	1	1	2	6	22	test_extra	id-1347_AU20-100_AU5-100	valence	-0.19565617710848307		2.585592892647582
id-1347_AU20-100_AU5-100	1	1	2	6	22	test_extra	id-1347_AU20-100_AU5-100	arousal	-0.5353370401440439		2.585592892647582
id-1360_AU1-100_AU11-66	1	1	2	6	23	test	id-1360_AU1-100_AU11-66	valence	-0.3913123542169661		4.619029047789809
id-1360_AU1-100_AU11-66	1	1	2	6	23	test	id-1360_AU1-100_AU11-66	arousal	-0.312506393992716		4.619029047789809
id-1378_AU25-33_AU4-66_AU43-33_AU7-33	1	1	2	6	24	test_extra	id-1378_AU25-33_AU4-66_AU43-33_AU7-33	valence	0.7391455579653804		3.602377831058675
id-1378_AU25-33_AU4-66_AU43-33_AU7-33	1	1	2	6	24	test_extra	id-1378_AU25-33_AU4-66_AU43-33_AU7-33	arousal	-0.6603395977411303		3.602377831058675
id-1289_AU17-33_AU26-66	1	1	2	6	25	test	id-1289_AU17-33_AU26-66	valence	0.28533192494987114		4.1858070284474715
id-1289_AU17-33_AU26-66	1	1	2	6	25	test	id-1289_AU17-33_AU26-66	arousal	-0.8913225846053117		4.1858070284474715
id-1363_AU14-100_AU22-33	1	1	2	6	26	test_extra	id-1363_AU14-100_AU22-33	valence	0.7011013013053977		3.060677042221414
id-1363_AU14-100_AU22-33	1	1	2	6	26	test_extra	id-1363_AU14-100_AU22-33	arousal	-0.9646936510209928		3.060677042221414
id-1291_AU14-100_AU15-66	1	1	2	6	27	test_extra	id-1291_AU14-100_AU15-66	valence	0.2608749028113107		2.9356342920341376
id-1291_AU14-100_AU15-66	1	1	2	6	27	test_extra	id-1291_AU14-100_AU15-66	arousal	-0.5788161906125957		2.9356342920341376
id-1260_AU24-66_AU26-66_AU5-33_AU6-66	1	1	2	6	28	train	id-1260_AU24-66_AU26-66_AU5-33_AU6-66	valence	0.1657642611613537		1.8354625668343945
id-1260_AU24-66_AU26-66_AU5-33_AU6-66	1	1	2	6	28	train	id-1260_AU24-66_AU26-66_AU5-33_AU6-66	arousal	-0.22283064615132792		1.8354625668343945
id-1363_AU1-33_AU15-100_AU2-66_AU22-66_AU5-100	1	1	2	6	29	test	id-1363_AU1-33_AU15-100_AU2-66_AU22-66_AU5-100	valence	0.3940298011212506		1.885360675744323
id-1363_AU1-33_AU15-100_AU2-66_AU22-66_AU5-100	1	1	2	6	29	test	id-1363_AU1-33_AU15-100_AU2-66_AU22-66_AU5-100	arousal	0.36685533207840576		1.885360675744323
id-1323_AU11-66_AU4-33_AU5-100_AU9-66	1	1	2	6	30	test_extra	id-1323_AU11-66_AU4-33_AU5-100_AU9-66	valence	-0.4565310799197938		1.5519557022030313
id-1323_AU11-66_AU4-33_AU5-100_AU9-66	1	1	2	6	30	test_extra	id-1323_AU11-66_AU4-33_AU5-100_AU9-66	arousal	-0.28533192494987114		1.5519557022030313
id-1280_AU26-66_AU9-100	1	1	2	6	31	train	id-1280_AU26-66_AU9-100	valence	-0.3913123542169661		1.6104364488473948
id-1280_AU26-66_AU9-100	1	1	2	6	31	train	id-1280_AU26-66_AU9-100	arousal	0.5896859782297337		1.6104364488473948
id-1293_AU10Open-66_AU26-100_AU27i-66_AU6-100	1	1	2	6	32	train	id-1293_AU10Open-66_AU26-100_AU27i-66_AU6-100	valence	-0.4538136330155093		2.702431832883576
id-1293_AU10Open-66_AU26-100_AU27i-66_AU6-100	1	1	2	6	32	train	id-1293_AU10Open-66_AU26-100_AU27i-66_AU6-100	arousal	0.8940400315095961		2.702431832883576
id-1260_AU20-100_AU25-33_AU4-33	1	1	2	6	33	train	id-1260_AU20-100_AU25-33_AU4-33	valence	-0.4320740577812335		2.785606113888207
id-1260_AU20-100_AU25-33_AU4-33	1	1	2	6	33	train	id-1260_AU20-100_AU25-33_AU4-33	arousal	-0.5652289560911733		2.785606113888207
id-1358_AU16Open-66_AU43-66	1	1	2	6	34	train	id-1358_AU16Open-66_AU43-66	valence	-0.4266391639726645		6.886751622696012
id-1358_AU16Open-66_AU43-66	1	1	2	6	34	train	id-1358_AU16Open-66_AU43-66	arousal	-0.15489447354421576		6.886751622696012
id-1367_AU1-100_AU22-33_AU26-100	1	1	2	6	35	test_extra	id-1367_AU1-100_AU22-33_AU26-100	valence	0.3885949073126817		1.4354983064436055
id-1367_AU1-100_AU22-33_AU26-100	1	1	2	6	35	test_extra	id-1367_AU1-100_AU22-33_AU26-100	arousal	0.2364178806727504		1.4354983064436055
id-1293_AU17-66_AU22-100_AU26-100_AU5-100	1	1	2	6	36	test_extra	id-1293_AU17-66_AU22-100_AU26-100_AU5-100	valence	-0.8886051377010272		2.3856270626120017
id-1293_AU17-66_AU22-100_AU26-100_AU5-100	1	1	2	6	36	test_extra	id-1293_AU17-66_AU22-100_AU26-100_AU5-100	arousal	0.4972927834840611		2.3856270626120017
id-1363_AU1-33_AU15-100_AU2-66_AU22-66_AU5-100	1	1	2	7	1	test	id-1363_AU1-33_AU15-100_AU2-66_AU22-66_AU5-100	emotion	Verrassing	0.6393769272629678	1.5365713700980448
id-1360_AU1-100_AU11-66	1	1	2	7	2	test	id-1360_AU1-100_AU11-66	emotion	Walging	0.43294120679614	1.5444959643518814
id-1291_AU14-100_AU15-66	1	1	2	7	3	test_extra	id-1291_AU14-100_AU15-66	emotion	Geen van allen	0.0	1.8781237067410081
id-1260_AU24-66_AU26-66_AU5-33_AU6-66	1	1	2	7	4	train	id-1260_AU24-66_AU26-66_AU5-33_AU6-66	emotion	Verdrietig	0.5479864220735946	2.4865884399869174
id-1367_AU1-100_AU22-33_AU26-100	1	1	2	7	5	test_extra	id-1367_AU1-100_AU22-33_AU26-100	emotion	Verrassing	0.790743716049592	1.2528957686295144
id-1269_AU1-66_AU16Open-33_AU20-66	1	1	2	7	6	test_extra	id-1269_AU1-66_AU16Open-33_AU20-66	emotion	Verrassing	0.19957448916035725	1.077880351395379
id-1280_AU11-100_AU26-100_AU27i-100_AU43-66	1	1	2	7	7	test_extra	id-1280_AU11-100_AU26-100_AU27i-100_AU43-66	emotion	Verdrietig	0.4600700446492668	5.920182948161255
id-1323_AU14-66_AU24-100_AU25-66	1	1	2	7	8	test_extra	id-1323_AU14-66_AU24-100_AU25-66	emotion	Verdrietig	0.3271358001400002	1.0780261472668826
id-1266_AU13-66_AU17-100_AU2-100_AU9-33	1	1	2	7	9	test	id-1266_AU13-66_AU17-100_AU2-100_AU9-33	emotion	Boos	0.3524686334021639	3.0451668366613376
id-1289_AU17-33_AU26-66	1	1	2	7	10	test	id-1289_AU17-33_AU26-66	emotion	Verrassing	0.07271086109610381	2.4366052080213194
id-1363_AU13-100_AU20-66_AU22-66_AU5-66	1	1	2	7	11	test_extra	id-1363_AU13-100_AU20-66_AU22-66_AU5-66	emotion	Bang	0.4886695043832112	1.811526989894901
id-1347_AU20-100_AU5-100	1	1	2	7	12	test_extra	id-1347_AU20-100_AU5-100	emotion	Bang	0.8077520560669981	1.3615281822212637
id-1290_AU11-100_AU15-33	1	1	2	7	13	train	id-1290_AU11-100_AU15-33	emotion	Walging	0.3336169156869509	1.0281334717437858
id-1335_AU11-66_AU17-66_AU25-66_AU6-33	1	1	2	7	14	train	id-1335_AU11-66_AU17-66_AU25-66_AU6-33	emotion	Blij	0.2490851949108845	1.9949351781897349
id-1311_AU13-33_AU17-66_AU26-33_AU6-100	1	1	2	7	15	test_extra	id-1311_AU13-33_AU17-66_AU26-33_AU6-100	emotion	Verrassing	0.4998622438123756	1.9863661239214707
id-1293_AU17-66_AU22-100_AU26-100_AU5-100	1	1	2	7	16	test_extra	id-1293_AU17-66_AU22-100_AU26-100_AU5-100	emotion	Verrassing	0.8395102253552097	2.9785915515062698
id-1260_AU20-100_AU25-33_AU4-33	1	1	2	7	17	train	id-1260_AU20-100_AU25-33_AU4-33	emotion	Bang	0.5262136143043267	1.9199218437533998
id-1356_AU22-100	1	1	2	7	18	test_extra	id-1356_AU22-100	emotion	Geen van allen	0.0	0.8281332302599367
id-1296_AU12-100_AU9-33	1	1	2	7	19	test_extra	id-1296_AU12-100_AU9-33	emotion	Walging	0.6001726097300443	2.2449325369598228
id-1363_AU14-100_AU22-33	1	1	2	7	20	test_extra	id-1363_AU14-100_AU22-33	emotion	Blij	0.20765006808202124	1.3279724925750995
id-1260_AU14-100_AU17-33_AU2-66_AU27i-100	1	1	2	7	21	test_extra	id-1260_AU14-100_AU17-33_AU2-66_AU27i-100	emotion	Verrassing	0.3393998092818939	3.195252669075672
id-1294_AU16Open-66_AU7-100	1	1	2	7	22	test_extra	id-1294_AU16Open-66_AU7-100	emotion	Walging	0.21061886579449549	2.5700063178210257
id-1342_AU1-100_AU14-100_AU15-66_AU5-100_AU7-100	1	1	2	7	23	test	id-1342_AU1-100_AU14-100_AU15-66_AU5-100_AU7-100	emotion	Blij	0.3151646741728975	1.052867454648549
id-1309_AU11-66_AU24-66	1	1	2	7	24	test	id-1309_AU11-66_AU24-66	emotion	Geen van allen	0.0	5.42849889717354
id-1323_AU11-66_AU4-33_AU5-100_AU9-66	1	1	2	7	25	test_extra	id-1323_AU11-66_AU4-33_AU5-100_AU9-66	emotion	Walging	0.3433171890652813	0.9031172847799098
id-1356_AU15-100	1	1	2	7	26	test_extra	id-1356_AU15-100	emotion	Verdrietig	0.1314141238933354	1.0114427120324765
id-1361_AU12-33_AU13-100_AU4-100	1	1	2	7	27	train	id-1361_AU12-33_AU13-100_AU4-100	emotion	Blij	0.5035466214322487	1.3365819953874052
id-1280_AU15-100_AU26-66_AU43-66	1	1	2	7	28	test_extra	id-1280_AU15-100_AU26-66_AU43-66	emotion	Verdrietig	0.5425651394214457	1.7281794442310456
id-1378_AU25-33_AU4-66_AU43-33_AU7-33	1	1	2	7	29	test_extra	id-1378_AU25-33_AU4-66_AU43-33_AU7-33	emotion	Blij	0.3635508728785145	1.4615504892913125
id-1339_AU16Open-66_AU24-100_AU43-33_AU7-100	1	1	2	7	30	test_extra	id-1339_AU16Open-66_AU24-100_AU43-33_AU7-100	emotion	Blij	0.19983511512119448	1.7533610778150432
id-1269_AU10Open-66_AU20-66_AU26-66_AU43-66	1	1	2	7	31	test	id-1269_AU10Open-66_AU20-66_AU26-66_AU43-66	emotion	Bang	0.4089775656931725	2.778338355694359
id-1293_AU10Open-66_AU26-100_AU27i-66_AU6-100	1	1	2	7	32	train	id-1293_AU10Open-66_AU26-100_AU27i-66_AU6-100	emotion	Boos	0.5981448596355494	1.05314455736152
id-1358_AU16Open-66_AU43-66	1	1	2	7	33	train	id-1358_AU16Open-66_AU43-66	emotion	Geen van allen	0.0	1.286460513919792
id-1345_AU17-100_AU20-33	1	1	2	7	34	test_extra	id-1345_AU17-100_AU20-33	emotion	Bang	0.2786750821906613	1.0946954752871534
id-1370_AU1-33_AU26-66_AU7-100	1	1	2	7	35	train	id-1370_AU1-33_AU26-66_AU7-100	emotion	Blij	0.4724881678161878	1.2779838272231243
id-1280_AU26-66_AU9-100	1	1	2	7	36	train	id-1280_AU26-66_AU9-100	emotion	Verrassing	0.6885596577839871	1.8697345579380449
id-1367_AU11-100_AU16Open-66_AU25-100	1	1	2	8	1	train	id-1367_AU11-100_AU16Open-66_AU25-100	valence	0.17663404877849165		4.969189076115981
id-1367_AU11-100_AU16Open-66_AU25-100	1	1	2	8	1	train	id-1367_AU11-100_AU16Open-66_AU25-100	arousal	-0.3913123542169661		4.969189076115981
id-1266_AU25-33_AU4-33	1	1	2	8	2	test_extra	id-1266_AU25-33_AU4-33	valence	-0.11413276997994845		2.168779398771676
id-1266_AU25-33_AU4-33	1	1	2	8	2	test_extra	id-1266_AU25-33_AU4-33	arousal	-0.8451259872324756		2.168779398771676
id-1341_AU1-33_AU15-33_AU2-66_AU4-33	1	1	2	8	3	test	id-1341_AU1-33_AU15-33_AU2-66_AU4-33	valence	0.1277200045013709		2.8105598470924638
id-1341_AU1-33_AU15-33_AU2-66_AU4-33	1	1	2	8	3	test	id-1341_AU1-33_AU15-33_AU2-66_AU4-33	arousal	-0.6114255534640095		2.8105598470924638
id-1293_AU15-33_AU17-100_AU27i-33_AU7-100	1	1	2	8	4	test_extra	id-1293_AU15-33_AU17-100_AU27i-33_AU7-100	valence	-0.2880493718541556		2.8523757935386134
id-1293_AU15-33_AU17-100_AU27i-33_AU7-100	1	1	2	8	4	test_extra	id-1293_AU15-33_AU17-100_AU27i-33_AU7-100	arousal	0.6440349163154233		2.8523757935386134
id-1355_AU10Open-33	1	1	2	8	5	test_extra	id-1355_AU10Open-33	valence	-0.0625012787985432		3.710718954761433
id-1355_AU10Open-33	1	1	2	8	5	test_extra	id-1355_AU10Open-33	arousal	-0.7934944960510701		3.710718954761433
id-1373_AU6-66_AU7-66	1	1	2	8	6	test_extra	id-1373_AU6-66_AU7-66	valence	-0.14130723902279332		4.8289838571067785
id-1373_AU6-66_AU7-66	1	1	2	8	6	test_extra	id-1373_AU6-66_AU7-66	arousal	-0.5869685313254491		4.8289838571067785
id-1295_AU11-33_AU12-100_AU13-100_AU20-33_AU9-66	1	1	2	8	7	test	id-1295_AU11-33_AU12-100_AU13-100_AU20-33_AU9-66	valence	-0.4293566108769489		2.260679396688829
id-1295_AU11-33_AU12-100_AU13-100_AU20-33_AU9-66	1	1	2	8	7	test	id-1295_AU11-33_AU12-100_AU13-100_AU20-33_AU9-66	arousal	0.7500153455825184		2.260679396688829
id-1295_AU22-66_AU4-100	1	1	2	8	8	test_extra	id-1295_AU22-66_AU4-100	valence	-0.3369634161312764		5.11089240053343
id-1295_AU22-66_AU4-100	1	1	2	8	8	test_extra	id-1295_AU22-66_AU4-100	arousal	-0.6820791729754062		5.11089240053343
id-1345_AU11-100_AU20-66	1	1	2	8	9	test_extra	id-1345_AU11-100_AU20-66	valence	0.09511064164995704		1.5270490583488936
id-1345_AU11-100_AU20-66	1	1	2	8	9	test_extra	id-1345_AU11-100_AU20-66	arousal	-0.836973646519622		1.5270490583488936
id-1289_AU10Open-100_AU4-66_AU43-33	1	1	2	8	10	test_extra	id-1289_AU10Open-100_AU4-66_AU43-33	valence	0.3206587347055695		8.302855154065128
id-1289_AU10Open-100_AU4-66_AU43-33	1	1	2	8	10	test_extra	id-1289_AU10Open-100_AU4-66_AU43-33	arousal	-0.3722902258869748		8.302855154065128
id-1295_AU12-66_AU17-66_AU25-66_AU9-100	1	1	2	8	11	test_extra	id-1295_AU12-66_AU17-66_AU25-66_AU9-100	valence	-0.32337618160985393		2.4356444041704894
id-1295_AU12-66_AU17-66_AU25-66_AU9-100	1	1	2	8	11	test_extra	id-1295_AU12-66_AU17-66_AU25-66_AU9-100	arousal	0.26359234971559525		2.4356444041704894
id-1273_AU17-33_AU20-33_AU7-33_AU9-66	1	1	2	8	12	test_extra	id-1273_AU17-33_AU20-33_AU7-33_AU9-66	valence	0.2581574559070263		2.777414679983849
id-1273_AU17-33_AU20-33_AU7-33_AU9-66	1	1	2	8	12	test_extra	id-1273_AU17-33_AU20-33_AU7-33_AU9-66	arousal	-0.4157693763555265		2.777414679983849
id-1260_AU12-66_AU25-33	1	1	2	8	13	test	id-1260_AU12-66_AU25-33	valence	0.3913123542169661		3.9941905023802073
id-1260_AU12-66_AU25-33	1	1	2	8	13	test	id-1260_AU12-66_AU25-33	arousal	0.2255480930556124		3.9941905023802073
id-1266_AU15-33	1	1	2	8	14	train	id-1266_AU15-33	valence	0.105980429267095		3.0439539840458565
id-1266_AU15-33	1	1	2	8	14	train	id-1266_AU15-33	arousal	-0.8478434341367599		3.0439539840458565
id-1296_AU12-100_AU14-66_AU17-100	1	1	2	8	15	train	id-1296_AU12-100_AU14-66_AU17-100	valence	0.2282655399598969		2.4691517970472887
id-1296_AU12-100_AU14-66_AU17-100	1	1	2	8	15	train	id-1296_AU12-100_AU14-66_AU17-100	arousal	0.33968086303556083		2.4691517970472887
id-1367_AU16Open-66_AU2-100_AU7-100	1	1	2	8	16	train	id-1367_AU16Open-66_AU2-100_AU7-100	valence	-0.33968086303556083		1.3188721738465574
id-1367_AU16Open-66_AU2-100_AU7-100	1	1	2	8	16	train	id-1367_AU16Open-66_AU2-100_AU7-100	arousal	0.6168604472725784		1.3188721738465574
id-1360_AU2-100_AU26-33	1	1	2	8	17	train	id-1360_AU2-100_AU26-33	valence	0.26359234971559525		1.5521709246804676
id-1360_AU2-100_AU26-33	1	1	2	8	17	train	id-1360_AU2-100_AU26-33	arousal	0.6005557658468715		1.5521709246804676
id-1318_AU22-33_AU25-33_AU26-66	1	1	2	8	18	test_extra	id-1318_AU22-33_AU25-33_AU26-66	valence	-0.4755532082497852		4.94402283712725
id-1318_AU22-33_AU25-33_AU26-66	1	1	2	8	18	test_extra	id-1318_AU22-33_AU25-33_AU26-66	arousal	-0.4402263984940868		4.94402283712725
id-1266_AU1-66_AU12-100_AU24-100	1	1	2	8	19	train	id-1266_AU1-66_AU12-100_AU24-100	valence	0.418486823259811		2.1355319028839403
id-1266_AU1-66_AU12-100_AU24-100	1	1	2	8	19	train	id-1266_AU1-66_AU12-100_AU24-100	arousal	0.19565617710848307		2.1355319028839403
id-1264_AU14-33_AU20-100_AU22-66_AU6-100	1	1	2	8	20	train	id-1264_AU14-33_AU20-100_AU22-66_AU6-100	valence	0.2744621373327332		2.3021672269596816
id-1264_AU14-33_AU20-100_AU22-66_AU6-100	1	1	2	8	20	train	id-1264_AU14-33_AU20-100_AU22-66_AU6-100	arousal	-0.5652289560911733		2.3021672269596816
id-1377_AU17-66_AU24-33_AU4-100	1	1	2	8	21	test	id-1377_AU17-66_AU24-33_AU4-100	valence	0.23370043376846586		2.2771350115053792
id-1377_AU17-66_AU24-33_AU4-100	1	1	2	8	21	test	id-1377_AU17-66_AU24-33_AU4-100	arousal	-0.21739575234275896		2.2771350115053792
id-1339_AU20-100_AU43-33_AU9-100	1	1	2	8	22	test_extra	id-1339_AU20-100_AU43-33_AU9-100	valence	-0.7146885358268201		2.177220164746359
id-1339_AU20-100_AU43-33_AU9-100	1	1	2	8	22	test_extra	id-1339_AU20-100_AU43-33_AU9-100	arousal	0.2418527744813193		2.177220164746359
id-1270_AU11-100_AU15-100_AU20-66_AU7-66	1	1	2	8	23	test	id-1270_AU11-100_AU15-100_AU20-66_AU7-66	valence	-0.5163149118140525		4.33570903128475
id-1270_AU11-100_AU15-100_AU20-66_AU7-66	1	1	2	8	23	test	id-1270_AU11-100_AU15-100_AU20-66_AU7-66	arousal	0.29620171256700906		4.33570903128475
id-1260_AU12-66_AU20-100_AU22-66_AU43-66	1	1	2	8	24	test_extra	id-1260_AU12-66_AU20-100_AU22-66_AU43-66	valence	-0.17935149568277614		4.919281307852543
id-1260_AU12-66_AU20-100_AU22-66_AU43-66	1	1	2	8	24	test_extra	id-1260_AU12-66_AU20-100_AU22-66_AU43-66	arousal	0.4918578896754921		4.919281307852543
id-1354_AU14-66_AU7-100	1	1	2	8	25	test_extra	id-1354_AU14-66_AU7-100	valence	0.17935149568277614		1.0020471793022807
id-1354_AU14-66_AU7-100	1	1	2	8	25	test_extra	id-1354_AU14-66_AU7-100	arousal	-0.5652289560911733		1.0020471793022807
id-1274_AU2-66_AU5-33_AU6-66	1	1	2	8	26	test_extra	id-1274_AU2-66_AU5-33_AU6-66	valence	-0.23370043376846586		1.2695237425405141
id-1274_AU2-66_AU5-33_AU6-66	1	1	2	8	26	test_extra	id-1274_AU2-66_AU5-33_AU6-66	arousal	-0.8668655624667513		1.2695237425405141
id-1273_AU12-100_AU16Open-100_AU5-66	1	1	2	8	27	test_extra	id-1273_AU12-100_AU16Open-100_AU5-66	valence	0.3288110754184229		2.1521535378433327
id-1273_AU12-100_AU16Open-100_AU5-66	1	1	2	8	27	test_extra	id-1273_AU12-100_AU16Open-100_AU5-66	arousal	0.4266391639726645		2.1521535378433327
id-1341_AU15-66_AU2-100_AU26-33_AU4-66	1	1	2	8	28	train	id-1341_AU15-66_AU2-100_AU26-33_AU4-66	valence	-0.2527225620984573		1.73528812494078
id-1341_AU15-66_AU2-100_AU26-33_AU4-66	1	1	2	8	28	train	id-1341_AU15-66_AU2-100_AU26-33_AU4-66	arousal	0.5543591684740353		1.73528812494078
id-1354_AU13-66_AU24-100_AU27i-66	1	1	2	8	29	test_extra	id-1354_AU13-66_AU24-100_AU27i-66	valence	0.11413276997994845		4.0606737218186035
id-1354_AU13-66_AU24-100_AU27i-66	1	1	2	8	29	test_extra	id-1354_AU13-66_AU24-100_AU27i-66	arousal	0.38044256659982817		4.0606737218186035
id-1363_AU2-100_AU25-100_AU26-100_AU27i-66	1	1	2	8	30	test_extra	id-1363_AU2-100_AU25-100_AU26-100_AU27i-66	valence	0.19022128329991408		1.1771836403149791
id-1363_AU2-100_AU25-100_AU26-100_AU27i-66	1	1	2	8	30	test_extra	id-1363_AU2-100_AU25-100_AU26-100_AU27i-66	arousal	0.7065361951139666		1.1771836403149791
id-1274_AU15-100_AU16Open-66_AU24-33	1	1	2	8	31	test_extra	id-1274_AU15-100_AU16Open-66_AU24-33	valence	-0.2500051151941728		5.5108231550411775
id-1274_AU15-100_AU16Open-66_AU24-33	1	1	2	8	31	test_extra	id-1274_AU15-100_AU16Open-66_AU24-33	arousal	-0.5353370401440439		5.5108231550411775
id-1260_AU22-100_AU25-100_AU26-100	1	1	2	8	32	test	id-1260_AU22-100_AU25-100_AU26-100	valence	0.26359234971559525		2.002180900982239
id-1260_AU22-100_AU25-100_AU26-100	1	1	2	8	32	test	id-1260_AU22-100_AU25-100_AU26-100	arousal	0.33968086303556083		2.002180900982239
id-1289_AU1-100_AU12-100_AU13-100_AU17-33	1	1	2	8	33	train	id-1289_AU1-100_AU12-100_AU13-100_AU17-33	valence	0.3559855444612677		3.1604623932680624
id-1289_AU1-100_AU12-100_AU13-100_AU17-33	1	1	2	8	33	train	id-1289_AU1-100_AU12-100_AU13-100_AU17-33	arousal	0.23370043376846586		3.1604623932680624
id-1370_AU20-33_AU26-100	1	1	2	8	34	test_extra	id-1370_AU20-33_AU26-100	valence	-0.3831600135041127		6.7278821172458265
id-1370_AU20-33_AU26-100	1	1	2	8	34	test_extra	id-1370_AU20-33_AU26-100	arousal	-0.24457022138560386		6.7278821172458265
id-1306_AU24-66_AU43-100_AU7-100	1	1	2	8	35	test	id-1306_AU24-66_AU43-100_AU7-100	valence	-0.21196085853419		3.910861671713974
id-1306_AU24-66_AU43-100_AU7-100	1	1	2	8	35	test	id-1306_AU24-66_AU43-100_AU7-100	arousal	-0.4565310799197938		3.910861671713974
id-1366_AU12-100	1	1	2	8	36	test_extra	id-1366_AU12-100	valence	0.21196085853419		2.0692880543074352
id-1366_AU12-100	1	1	2	8	36	test_extra	id-1366_AU12-100	arousal	-0.3695727789826902		2.0692880543074352
id-1347_AU15-100_AU16Open-33_AU25-100_AU27i-100	1	1	3	9	1	test_extra	id-1347_AU15-100_AU16Open-33_AU25-100_AU27i-100	valence	-0.6657744915496994		3.6274951695686473
id-1347_AU15-100_AU16Open-33_AU25-100_AU27i-100	1	1	3	9	1	test_extra	id-1347_AU15-100_AU16Open-33_AU25-100_AU27i-100	arousal	0.8804527969881736		3.6274951695686473
id-1323_AU13-100_AU20-33_AU6-100	1	1	3	9	2	test_extra	id-1323_AU13-100_AU20-33_AU6-100	valence	-0.21196085853419		1.2603660713984937
id-1323_AU13-100_AU20-33_AU6-100	1	1	3	9	2	test_extra	id-1323_AU13-100_AU20-33_AU6-100	arousal	-0.8723004562753204		1.2603660713984937
id-1358_AU11-100_AU12-100_AU14-100_AU16Open-66_AU6-100	1	1	3	9	3	test	id-1358_AU11-100_AU12-100_AU14-100_AU16Open-66_AU6-100	valence	0.42392171706838		2.544824986091953
id-1358_AU11-100_AU12-100_AU14-100_AU16Open-66_AU6-100	1	1	3	9	3	test	id-1358_AU11-100_AU12-100_AU14-100_AU16Open-66_AU6-100	arousal	0.804364283668208		2.544824986091953
id-1315_AU12-66_AU17-33_AU2-100_AU4-100	1	1	3	9	4	test	id-1315_AU12-66_AU17-33_AU2-100_AU4-100	valence	-0.5000102303883456		1.3437643286706589
id-1315_AU12-66_AU17-33_AU2-100_AU4-100	1	1	3	9	4	test	id-1315_AU12-66_AU17-33_AU2-100_AU4-100	arousal	0.3722902258869748		1.3437643286706589
id-1297_AU13-100_AU20-66_AU5-100_AU6-100	1	1	3	9	5	test_extra	id-1297_AU13-100_AU20-66_AU5-100_AU6-100	valence	-0.5679464029954577		2.885641702569956
id-1297_AU13-100_AU20-66_AU5-100_AU6-100	1	1	3	9	5	test_extra	id-1297_AU13-100_AU20-66_AU5-100_AU6-100	arousal	-0.20380851782133647		2.885641702569956
id-1280_AU11-33_AU17-66_AU2-66_AU26-66_AU9-66	1	1	3	9	6	test	id-1280_AU11-33_AU17-66_AU2-66_AU26-66_AU9-66	valence	-0.7717549208167943		2.4608248303347864
id-1280_AU11-33_AU17-66_AU2-66_AU26-66_AU9-66	1	1	3	9	6	test	id-1280_AU11-33_AU17-66_AU2-66_AU26-66_AU9-66	arousal	0.2663097966198797		2.4608248303347864
id-1377_AU10Open-66_AU16Open-66_AU26-100	1	1	3	9	7	train	id-1377_AU10Open-66_AU16Open-66_AU26-100	valence	-0.8587132217538979		3.6358921665960224
id-1377_AU10Open-66_AU16Open-66_AU26-100	1	1	3	9	7	train	id-1377_AU10Open-66_AU16Open-66_AU26-100	arousal	0.5760987437083112		3.6358921665960224
id-1311_AU16Open-100_AU43-100_AU6-66_AU9-100	1	1	3	9	8	test	id-1311_AU16Open-100_AU43-100_AU6-66_AU9-100	valence	-0.5652289560911733		4.060820121399956
id-1311_AU16Open-100_AU43-100_AU6-66_AU9-100	1	1	3	9	8	test	id-1311_AU16Open-100_AU43-100_AU6-66_AU9-100	arousal	0.836973646519622		4.060820121399956
id-1347_AU22-100_AU6-100	1	1	3	9	9	test_extra	id-1347_AU22-100_AU6-100	valence	-0.20380851782133647		3.1272701368097837
id-1347_AU22-100_AU6-100	1	1	3	9	9	test_extra	id-1347_AU22-100_AU6-100	arousal	-0.7690374739125099		3.1272701368097837
id-1266_AU20-100_AU22-100_AU24-100_AU25-66_AU6-66	1	1	3	9	10	test_extra	id-1266_AU20-100_AU22-100_AU24-100_AU25-66_AU6-66	valence	-0.20652596472562101		3.9772974999486905
id-1266_AU20-100_AU22-100_AU24-100_AU25-66_AU6-66	1	1	3	9	10	test_extra	id-1266_AU20-100_AU22-100_AU24-100_AU25-66_AU6-66	arousal	-0.5597940622826043		3.9772974999486905
id-1279_AU11-66	1	1	3	9	11	test_extra	id-1279_AU11-66	valence	0.5326195932397594		2.7873405716100024
id-1279_AU11-66	1	1	3	9	11	test_extra	id-1279_AU11-66	arousal	-0.9021923722224496		2.7873405716100024
id-1344_AU1-33_AU10Open-100	1	1	3	9	12	train	id-1344_AU1-33_AU10Open-100	valence	-0.5570766153783199		5.84431113865321
id-1344_AU1-33_AU10Open-100	1	1	3	9	12	train	id-1344_AU1-33_AU10Open-100	arousal	-0.8532783279453289		5.84431113865321
id-1274_AU14-33_AU6-33	1	1	3	9	13	test_extra	id-1274_AU14-33_AU6-33	valence	0.3097889470884315		1.7853908914103158
id-1274_AU14-33_AU6-33	1	1	3	9	13	test_extra	id-1274_AU14-33_AU6-33	arousal	-0.8396910934239064		1.7853908914103158
id-1344_AU13-100_AU17-100_AU9-66	1	1	3	9	14	test_extra	id-1344_AU13-100_AU17-100_AU9-66	valence	-0.29348426566272456		1.693812972572232
id-1344_AU13-100_AU17-100_AU9-66	1	1	3	9	14	test_extra	id-1344_AU13-100_AU17-100_AU9-66	arousal	-0.21467830543847446		1.693812972572232
id-1355_AU13-33_AU15-100_AU2-100_AU20-66_AU4-33	1	1	3	9	15	train	id-1355_AU13-33_AU15-100_AU2-100_AU20-66_AU4-33	valence	0.28261447804558665		5.452623737077374
id-1355_AU13-33_AU15-100_AU2-100_AU20-66_AU4-33	1	1	3	9	15	train	id-1355_AU13-33_AU15-100_AU2-100_AU20-66_AU4-33	arousal	-0.28261447804558665		5.452623737077374
id-1376_AU1-100_AU13-33_AU14-33_AU27i-66	1	1	3	9	16	test	id-1376_AU1-100_AU13-33_AU14-33_AU27i-66	valence	-0.17663404877849165		6.310940033222322
id-1376_AU1-100_AU13-33_AU14-33_AU27i-66	1	1	3	9	16	test	id-1376_AU1-100_AU13-33_AU14-33_AU27i-66	arousal	0.6358825756025699		6.310940033222322
id-1279_AU11-33_AU12-100_AU15-33_AU26-66_AU43-100	1	1	3	9	17	train	id-1279_AU11-33_AU12-100_AU15-33_AU26-66_AU43-100	valence	0.4864229958669232		1.2272058115504478
id-1279_AU11-33_AU12-100_AU15-33_AU26-66_AU43-100	1	1	3	9	17	train	id-1279_AU11-33_AU12-100_AU15-33_AU26-66_AU43-100	arousal	0.4157693763555265		1.2272058115504478
id-1378_AU12-100_AU13-33_AU2-100_AU27i-100	1	1	3	9	18	test_extra	id-1378_AU12-100_AU13-33_AU2-100_AU27i-100	valence	-0.5978383189425871		2.6188932131271936
id-1378_AU12-100_AU13-33_AU2-100_AU27i-100	1	1	3	9	18	test_extra	id-1378_AU12-100_AU13-33_AU2-100_AU27i-100	arousal	0.9782808855424152		2.6188932131271936
id-1294_AU15-66_AU2-66_AU6-100	1	1	3	9	19	test_extra	id-1294_AU15-66_AU2-66_AU6-100	valence	0.1521770266399313		1.9689255568691808
id-1294_AU15-66_AU2-66_AU6-100	1	1	3	9	19	test_extra	id-1294_AU15-66_AU2-66_AU6-100	arousal	-0.7337106641568115		1.9689255568691808
id-1342_AU10Open-66_AU25-66_AU26-33_AU5-100	1	1	3	9	20	test_extra	id-1342_AU10Open-66_AU25-66_AU26-33_AU5-100	valence	-0.7636025801039408		2.668942551295004
id-1342_AU10Open-66_AU25-66_AU26-33_AU5-100	1	1	3	9	20	test_extra	id-1342_AU10Open-66_AU25-66_AU26-33_AU5-100	arousal	0.7309932172525271		2.668942551295004
id-1302_AU14-100_AU17-33_AU26-66_AU9-33	1	1	3	9	21	test_extra	id-1302_AU14-100_AU17-33_AU26-66_AU9-33	valence	-0.5924034251340181		2.26048319106485
id-1302_AU14-100_AU17-33_AU26-66_AU9-33	1	1	3	9	21	test_extra	id-1302_AU14-100_AU17-33_AU26-66_AU9-33	arousal	0.6467523632197079		2.26048319106485
id-1315_AU15-100_AU2-33_AU25-33_AU26-66	1	1	3	9	22	train	id-1315_AU15-100_AU2-33_AU25-33_AU26-66	valence	0.3885949073126817		3.7689929308626233
id-1315_AU15-100_AU2-33_AU25-33_AU26-66	1	1	3	9	22	train	id-1315_AU15-100_AU2-33_AU25-33_AU26-66	arousal	0.5054451241969146		3.7689929308626233
id-1306_AU1-66_AU11-100_AU16Open-66_AU24-66	1	1	3	9	23	train	id-1306_AU1-66_AU11-100_AU16Open-66_AU24-66	valence	0.13587234521422434		2.3439221987346173
id-1306_AU1-66_AU11-100_AU16Open-66_AU24-66	1	1	3	9	23	train	id-1306_AU1-66_AU11-100_AU16Open-66_AU24-66	arousal	-0.4809881020583541		2.3439221987346173
id-1264_AU13-100_AU15-33_AU22-33	1	1	3	9	24	test_extra	id-1264_AU13-100_AU15-33_AU22-33	valence	0.4293566108769489		2.293855654842446
id-1264_AU13-100_AU15-33_AU22-33	1	1	3	9	24	test_extra	id-1264_AU13-100_AU15-33_AU22-33	arousal	-0.9293668412652946		2.293855654842446
id-1315_AU2-100_AU24-100	1	1	3	9	25	test_extra	id-1315_AU2-100_AU24-100	valence	0.33968086303556083		5.086072992718073
id-1315_AU2-100_AU24-100	1	1	3	9	25	test_extra	id-1315_AU2-100_AU24-100	arousal	-0.7282757703482424		5.086072992718073
id-1270_AU12-33_AU15-33_AU17-100_AU24-66	1	1	3	9	26	test_extra	id-1270_AU12-33_AU15-33_AU17-100_AU24-66	valence	0.2527225620984573		4.469188925188973
id-1270_AU12-33_AU15-33_AU17-100_AU24-66	1	1	3	9	26	test_extra	id-1270_AU12-33_AU15-33_AU17-100_AU24-66	arousal	-0.3532680975569833		4.469188925188973
id-1311_AU20-33_AU22-100_AU24-66_AU5-66	1	1	3	9	27	train	id-1311_AU20-33_AU22-100_AU24-66_AU5-66	valence	-0.11956766378851742		5.33592063150445
id-1311_AU20-33_AU22-100_AU24-66_AU5-66	1	1	3	9	27	train	id-1311_AU20-33_AU22-100_AU24-66_AU5-66	arousal	-0.4293566108769489		5.33592063150445
id-1361_AU2-100_AU20-66_AU6-100	1	1	3	9	28	train	id-1361_AU2-100_AU20-66_AU6-100	valence	-0.2771795842370177		4.787037811239316
id-1361_AU2-100_AU20-66_AU6-100	1	1	3	9	28	train	id-1361_AU2-100_AU20-66_AU6-100	arousal	-0.07065361951139666		4.787037811239316
id-1335_AU43-66_AU5-66	1	1	3	9	29	test	id-1335_AU43-66_AU5-66	valence	0.4674008675369317		4.385765312113108
id-1335_AU43-66_AU5-66	1	1	3	9	29	test	id-1335_AU43-66_AU5-66	arousal	-0.7581676862953719		4.385765312113108
id-1306_AU15-66_AU27i-66_AU43-33	1	1	3	9	30	train	id-1306_AU15-66_AU27i-66_AU43-33	valence	-0.14130723902279332		5.069268131890566
id-1306_AU15-66_AU27i-66_AU43-33	1	1	3	9	30	train	id-1306_AU15-66_AU27i-66_AU43-33	arousal	0.2500051151941728		5.069268131890566
id-1309_AU10Open-100_AU2-100_AU27i-33	1	1	3	9	31	test_extra	id-1309_AU10Open-100_AU2-100_AU27i-33	valence	-0.2527225620984573		3.4189847355037277
id-1309_AU10Open-100_AU2-100_AU27i-33	1	1	3	9	31	test_extra	id-1309_AU10Open-100_AU2-100_AU27i-33	arousal	0.7119710889225355		3.4189847355037277
id-1362_AU11-66_AU13-100_AU15-100_AU9-100	1	1	3	9	32	test_extra	id-1362_AU11-66_AU13-100_AU15-100_AU9-100	valence	-0.4945753365797766		4.502664019601982
id-1362_AU11-66_AU13-100_AU15-100_AU9-100	1	1	3	9	32	test_extra	id-1362_AU11-66_AU13-100_AU15-100_AU9-100	arousal	0.0842408540328191		4.502664019601982
id-1345_AU26-66_AU27i-100_AU9-100	1	1	3	9	33	train	id-1345_AU26-66_AU27i-100_AU9-100	valence	-0.4565310799197938		2.9023780423567587
id-1345_AU26-66_AU27i-100_AU9-100	1	1	3	9	33	train	id-1345_AU26-66_AU27i-100_AU9-100	arousal	0.6087081065597252		2.9023780423567587
id-1307_AU10Open-66_AU17-33_AU22-33_AU9-100	1	1	3	9	34	test	id-1307_AU10Open-66_AU17-33_AU22-33_AU9-100	valence	-0.4728357613455008		4.302594653367123
id-1307_AU10Open-66_AU17-33_AU22-33_AU9-100	1	1	3	9	34	test	id-1307_AU10Open-66_AU17-33_AU22-33_AU9-100	arousal	0.2201131992470434		4.302594653367123
id-1360_AU1-66_AU14-66_AU15-66	1	1	3	9	35	test_extra	id-1360_AU1-66_AU14-66_AU15-66	valence	0.20652596472562101		2.235485688913286
id-1360_AU1-66_AU14-66_AU15-66	1	1	3	9	35	test_extra	id-1360_AU1-66_AU14-66_AU15-66	arousal	-0.4837055489626387		2.235485688913286
id-1367_AU16Open-100	1	1	3	9	36	train	id-1367_AU16Open-100	valence	-0.26902724352416424		3.04403699411796
id-1367_AU16Open-100	1	1	3	9	36	train	id-1367_AU16Open-100	arousal	-0.3451157568441299		3.04403699411796
id-1285_AU11-100_AU16Open-33_AU27i-33_AU9-100	1	1	3	10	1	test_extra	id-1285_AU11-100_AU16Open-33_AU27i-33_AU9-100	valence	-0.4402263984940868		2.5280180122799716
id-1285_AU11-100_AU16Open-33_AU27i-33_AU9-100	1	1	3	10	1	test_extra	id-1285_AU11-100_AU16Open-33_AU27i-33_AU9-100	arousal	0.3423983099398454		2.5280180122799716
id-1296_AU22-66_AU24-66_AU25-66_AU5-66_AU6-100	1	1	3	10	2	test_extra	id-1296_AU22-66_AU24-66_AU25-66_AU5-66_AU6-100	valence	-0.20380851782133647		1.9687115418109893
id-1296_AU22-66_AU24-66_AU25-66_AU5-66_AU6-100	1	1	3	10	2	test_extra	id-1296_AU22-66_AU24-66_AU25-66_AU5-66_AU6-100	arousal	-0.4538136330155093		1.9687115418109893
id-1318_AU2-66_AU22-100_AU5-33_AU7-66	1	1	3	10	3	train	id-1318_AU2-66_AU22-100_AU5-33_AU7-66	valence	-0.4674008675369317		2.177151039994897
id-1318_AU2-66_AU22-100_AU5-33_AU7-66	1	1	3	10	3	train	id-1318_AU2-66_AU22-100_AU5-33_AU7-66	arousal	-0.7391455579653804		2.177151039994897
id-1378_AU12-33_AU9-66	1	1	3	10	4	test_extra	id-1378_AU12-33_AU9-66	valence	0.4918578896754921		2.1771271934658216
id-1378_AU12-33_AU9-66	1	1	3	10	4	test_extra	id-1378_AU12-33_AU9-66	arousal	0.30163660637557804		2.1771271934658216
id-1366_AU22-66_AU43-66	1	1	3	10	5	test_extra	id-1366_AU22-66_AU43-66	valence	0.23370043376846586		2.5782071092235133
id-1366_AU22-66_AU43-66	1	1	3	10	5	test_extra	id-1366_AU22-66_AU43-66	arousal	-0.7771898146253633		2.5782071092235133
id-1289_AU20-33_AU26-66_AU9-66	1	1	3	10	6	train	id-1289_AU20-33_AU26-66_AU9-66	valence	-0.4402263984940868		2.1938692684943817
id-1289_AU20-33_AU26-66_AU9-66	1	1	3	10	6	train	id-1289_AU20-33_AU26-66_AU9-66	arousal	0.20380851782133647		2.1938692684943817
id-1302_AU2-33_AU43-66	1	1	3	10	7	test_extra	id-1302_AU2-33_AU43-66	valence	-0.2663097966198797		4.252516337136512
id-1302_AU2-33_AU43-66	1	1	3	10	7	test_extra	id-1302_AU2-33_AU43-66	arousal	-0.7581676862953719		4.252516337136512
id-1362_AU17-33_AU5-33	1	1	3	10	8	train	id-1362_AU17-33_AU5-33	valence	0.7391455579653804		2.893941200494737
id-1362_AU17-33_AU5-33	1	1	3	10	8	train	id-1362_AU17-33_AU5-33	arousal	-0.92664939436101		2.893941200494737
id-1361_AU16Open-33_AU24-66_AU25-100	1	1	3	10	9	test_extra	id-1361_AU16Open-33_AU24-66_AU25-100	valence	-0.2798970311413021		5.286146584920972
id-1361_AU16Open-33_AU24-66_AU25-100	1	1	3	10	9	test_extra	id-1361_AU16Open-33_AU24-66_AU25-100	arousal	-0.13043745140565535		5.286146584920972
id-1355_AU13-66_AU2-66_AU6-33	1	1	3	10	10	test_extra	id-1355_AU13-66_AU2-66_AU6-33	valence	0.1711991549699227		4.110745095386847
id-1355_AU13-66_AU2-66_AU6-33	1	1	3	10	10	test_extra	id-1355_AU13-66_AU2-66_AU6-33	arousal	-0.7636025801039408		4.110745095386847
id-1360_AU12-100_AU43-66_AU7-33	1	1	3	10	11	train	id-1360_AU12-100_AU43-66_AU7-33	valence	-0.201091070917052		3.5856396801427763
id-1360_AU12-100_AU43-66_AU7-33	1	1	3	10	11	train	id-1360_AU12-100_AU43-66_AU7-33	arousal	-0.5896859782297337		3.5856396801427763
id-1310_AU12-33_AU14-33_AU22-100_AU6-100	1	1	3	10	12	test	id-1310_AU12-33_AU14-33_AU22-100_AU6-100	valence	0.3097889470884315		4.16075579614062
id-1310_AU12-33_AU14-33_AU22-100_AU6-100	1	1	3	10	12	test	id-1310_AU12-33_AU14-33_AU22-100_AU6-100	arousal	0.2500051151941728		4.16075579614062
id-1307_AU17-66_AU25-33_AU4-100	1	1	3	10	13	test_extra	id-1307_AU17-66_AU25-33_AU4-100	valence	-0.2282655399598969		2.7188180210941937
id-1307_AU17-66_AU25-33_AU4-100	1	1	3	10	13	test_extra	id-1307_AU17-66_AU25-33_AU4-100	arousal	-0.4157693763555265		2.7188180210941937
id-1373_AU11-33_AU13-100_AU16Open-66_AU43-33	1	1	3	10	14	test	id-1373_AU11-33_AU13-100_AU16Open-66_AU43-33	valence	0.2255480930556124		4.719144627995775
id-1373_AU11-33_AU13-100_AU16Open-66_AU43-33	1	1	3	10	14	test	id-1373_AU11-33_AU13-100_AU16Open-66_AU43-33	arousal	-0.6032732127511561		4.719144627995775
id-1285_AU26-33_AU5-100	1	1	3	10	15	train	id-1285_AU26-33_AU5-100	valence	-0.2201131992470434		2.6938999067569966
id-1285_AU26-33_AU5-100	1	1	3	10	15	train	id-1285_AU26-33_AU5-100	arousal	0.6847966198796908		2.6938999067569966
id-1293_AU6-33_AU7-66	1	1	3	10	16	train	id-1293_AU6-33_AU7-66	valence	-0.19293873020419855		4.635810363943165
id-1293_AU6-33_AU7-66	1	1	3	10	16	train	id-1293_AU6-33_AU7-66	arousal	-0.7119710889225355		4.635810363943165
id-1318_AU13-33_AU20-66_AU5-100_AU6-66	1	1	3	10	17	train	id-1318_AU13-33_AU20-66_AU5-100_AU6-66	valence	-0.4483787392069404		1.852178984204329
id-1318_AU13-33_AU20-66_AU5-100_AU6-66	1	1	3	10	17	train	id-1318_AU13-33_AU20-66_AU5-100_AU6-66	arousal	-0.5896859782297337		1.852178984204329
id-1290_AU11-66_AU16Open-100_AU43-33_AU6-33	1	1	3	10	18	train	id-1290_AU11-66_AU16Open-100_AU43-33_AU6-33	valence	-0.5000102303883456		6.86094001812944
id-1290_AU11-66_AU16Open-100_AU43-33_AU6-33	1	1	3	10	18	train	id-1290_AU11-66_AU16Open-100_AU43-33_AU6-33	arousal	-0.16032936735278475		6.86094001812944
id-1307_AU10Open-33_AU12-100_AU17-33	1	1	3	10	19	train	id-1307_AU10Open-33_AU12-100_AU17-33	valence	0.402182141834104		0.9938394452392458
id-1307_AU10Open-33_AU12-100_AU17-33	1	1	3	10	19	train	id-1307_AU10Open-33_AU12-100_AU17-33	arousal	0.2798970311413021		0.9938394452392458
id-1264_AU14-33_AU16Open-100_AU20-33	1	1	3	10	20	train	id-1264_AU14-33_AU16Open-100_AU20-33	valence	0.23370043376846586		1.5187094137345412
id-1264_AU14-33_AU16Open-100_AU20-33	1	1	3	10	20	train	id-1264_AU14-33_AU16Open-100_AU20-33	arousal	-0.3315285223227074		1.5187094137345412
id-1342_AU14-100_AU25-66	1	1	3	10	21	train	id-1342_AU14-100_AU25-66	valence	0.23098298686418134		2.635683886778679
id-1342_AU14-100_AU25-66	1	1	3	10	21	train	id-1342_AU14-100_AU25-66	arousal	-0.6739268322625528		2.635683886778679
id-1264_AU10Open-33_AU25-66_AU4-66	1	1	3	10	22	test	id-1264_AU10Open-33_AU25-66_AU4-66	valence	-0.26902724352416424		2.1438884513672747
id-1264_AU10Open-33_AU25-66_AU4-66	1	1	3	10	22	test	id-1264_AU10Open-33_AU25-66_AU4-66	arousal	0.3641378851741212		2.1438884513672747
id-1285_AU16Open-33_AU5-33	1	1	3	10	23	test	id-1285_AU16Open-33_AU5-33	valence	-0.1630468142570692		5.135895336071371
id-1285_AU16Open-33_AU5-33	1	1	3	10	23	test	id-1285_AU16Open-33_AU5-33	arousal	-0.4266391639726645		5.135895336071371
id-1302_AU15-66_AU24-100_AU25-100_AU43-33	1	1	3	10	24	test	id-1302_AU15-66_AU24-100_AU25-100_AU43-33	valence	-0.40489958873838855		4.694125996007641
id-1302_AU15-66_AU24-100_AU25-100_AU43-33	1	1	3	10	24	test	id-1302_AU15-66_AU24-100_AU25-100_AU43-33	arousal	-0.17663404877849165		4.694125996007641
id-1273_AU1-33_AU25-100_AU4-33	1	1	3	10	25	test_extra	id-1273_AU1-33_AU25-100_AU4-33	valence	0.21467830543847446		3.7106827321849782
id-1273_AU1-33_AU25-100_AU4-33	1	1	3	10	25	test_extra	id-1273_AU1-33_AU25-100_AU4-33	arousal	-0.6521872570282768		3.7106827321849782
id-1380_AU11-66_AU13-33	1	1	3	10	26	train	id-1380_AU11-66_AU13-33	valence	0.5924034251340181		6.5277182704567185
id-1380_AU11-66_AU13-33	1	1	3	10	26	train	id-1380_AU11-66_AU13-33	arousal	-0.831538752711053		6.5277182704567185
id-1366_AU16Open-100_AU43-100	1	1	3	10	27	train	id-1366_AU16Open-100_AU43-100	valence	0.3695727789826902		3.552425991993005
id-1366_AU16Open-100_AU43-100	1	1	3	10	27	train	id-1366_AU16Open-100_AU43-100	arousal	-0.08695830093710358		3.552425991993005
id-1293_AU22-66_AU25-100_AU5-33_AU9-33	1	1	3	10	28	test	id-1293_AU22-66_AU25-100_AU5-33_AU9-33	valence	-0.3858774604083972		1.6687593254264357
id-1293_AU22-66_AU25-100_AU5-33_AU9-33	1	1	3	10	28	test	id-1293_AU22-66_AU25-100_AU5-33_AU9-33	arousal	0.22283064615132792		1.6687593254264357
id-1266_AU14-66_AU16Open-66_AU27i-33_AU43-66	1	1	3	10	29	train	id-1266_AU14-66_AU16Open-66_AU27i-33_AU43-66	valence	-0.33424596922699185		4.952521257369881
id-1266_AU14-66_AU16Open-66_AU27i-33_AU43-66	1	1	3	10	29	train	id-1266_AU14-66_AU16Open-66_AU27i-33_AU43-66	arousal	0.3695727789826902		4.952521257369881
id-1297_AU10Open-100_AU6-100	1	1	3	10	30	test_extra	id-1297_AU10Open-100_AU6-100	valence	-0.40489958873838855		2.2605698233937797
id-1297_AU10Open-100_AU6-100	1	1	3	10	30	test_extra	id-1297_AU10Open-100_AU6-100	arousal	-0.05978383189425871		2.2605698233937797
id-1356_AU6-33	1	1	3	10	31	test	id-1356_AU6-33	valence	-0.14130723902279332		5.8534926563252165
id-1356_AU6-33	1	1	3	10	31	test	id-1356_AU6-33	arousal	-0.915779606743872		5.8534926563252165
id-1376_AU10Open-100_AU11-66_AU25-33_AU27i-66_AU9-100	1	1	3	10	32	train	id-1376_AU10Open-100_AU11-66_AU25-33_AU27i-66_AU9-100	valence	-0.3587029913655523		1.2770924499773173
id-1376_AU10Open-100_AU11-66_AU25-33_AU27i-66_AU9-100	1	1	3	10	32	train	id-1376_AU10Open-100_AU11-66_AU25-33_AU27i-66_AU9-100	arousal	0.6114255534640095		1.2770924499773173
id-1339_AU22-33_AU25-100_AU27i-100_AU4-66	1	1	3	10	33	test_extra	id-1339_AU22-33_AU25-100_AU27i-100_AU4-66	valence	0.3043540532798626		1.2521033997609263
id-1339_AU22-33_AU25-100_AU27i-100_AU4-66	1	1	3	10	33	test_extra	id-1339_AU22-33_AU25-100_AU27i-100_AU4-66	arousal	0.6521872570282768		1.2521033997609263
id-1360_AU1-100_AU17-100_AU2-66	1	1	3	10	34	train	id-1360_AU1-100_AU17-100_AU2-66	valence	0.29348426566272456		1.71048833768873
id-1360_AU1-100_AU17-100_AU2-66	1	1	3	10	34	train	id-1360_AU1-100_AU17-100_AU2-66	arousal	-0.2608749028113107		1.71048833768873
id-1310_AU14-100_AU43-100_AU9-33	1	1	3	10	35	test_extra	id-1310_AU14-100_AU43-100_AU9-33	valence	-0.7445804517739495		3.260762406760477
id-1310_AU14-100_AU43-100_AU9-33	1	1	3	10	35	test_extra	id-1310_AU14-100_AU43-100_AU9-33	arousal	-0.1820689425870606		3.260762406760477
id-1273_AU10Open-66_AU12-66_AU25-66	1	1	3	10	36	test_extra	id-1273_AU10Open-66_AU12-66_AU25-66	valence	0.5217498056226214		1.9356868147706336
id-1273_AU10Open-66_AU12-66_AU25-66	1	1	3	10	36	test_extra	id-1273_AU10Open-66_AU12-66_AU25-66	arousal	0.14945957973564675		1.9356868147706336
id-1323_AU22-33_AU5-100_AU9-66	1	1	3	11	1	test_extra	id-1323_AU22-33_AU5-100_AU9-66	valence	-0.1630468142570692		5.427584277107599
id-1323_AU22-33_AU5-100_AU9-66	1	1	3	11	1	test_extra	id-1323_AU22-33_AU5-100_AU9-66	arousal	-0.5054451241969146		5.427584277107599
id-1274_AU14-100_AU26-33	1	1	3	11	2	test_extra	id-1274_AU14-100_AU26-33	valence	-0.19293873020419855		2.6938974919185057
id-1274_AU14-100_AU26-33	1	1	3	11	2	test_extra	id-1274_AU14-100_AU26-33	arousal	-0.04619659737283628		2.6938974919185057
id-1296_AU15-66_AU24-66	1	1	3	11	3	test_extra	id-1296_AU15-66_AU24-66	valence	0.2880493718541556		2.6771412297148345
id-1296_AU15-66_AU24-66	1	1	3	11	3	test_extra	id-1296_AU15-66_AU24-66	arousal	-0.5951208720383027		2.6771412297148345
id-1264_AU11-33_AU13-33_AU22-33	1	1	3	11	4	test_extra	id-1264_AU11-33_AU13-33_AU22-33	valence	0.1277200045013709		1.1103768325228884
id-1264_AU11-33_AU13-33_AU22-33	1	1	3	11	4	test_extra	id-1264_AU11-33_AU13-33_AU22-33	arousal	-0.864148115562467		1.1103768325228884
id-1341_AU24-66_AU4-66_AU9-66	1	1	3	11	5	test_extra	id-1341_AU24-66_AU4-66_AU9-66	valence	-0.3043540532798626		1.2020818322343985
id-1341_AU24-66_AU4-66_AU9-66	1	1	3	11	5	test_extra	id-1341_AU24-66_AU4-66_AU9-66	arousal	0.4864229958669232		1.2020818322343985
id-1358_AU14-100	1	1	3	11	6	test_extra	id-1358_AU14-100	valence	0.42120427016409545		1.3853297356272378
id-1358_AU14-100	1	1	3	11	6	test_extra	id-1358_AU14-100	arousal	0.2717446904284487		1.3853297356272378
id-1342_AU12-100_AU20-100_AU6-66	1	1	3	11	7	train	id-1342_AU12-100_AU20-100_AU6-66	valence	-0.7337106641568115		1.8520971815514715
id-1342_AU12-100_AU20-100_AU6-66	1	1	3	11	7	train	id-1342_AU12-100_AU20-100_AU6-66	arousal	0.10869787617137948		1.8520971815514715
id-1362_AU11-100_AU17-33_AU43-66	1	1	3	11	8	train	id-1362_AU11-100_AU17-33_AU43-66	valence	-0.4375089515898024		3.877604818327201
id-1362_AU11-100_AU17-33_AU43-66	1	1	3	11	8	train	id-1362_AU11-100_AU17-33_AU43-66	arousal	-0.19293873020419855		3.877604818327201
id-1290_AU10Open-33_AU14-66_AU24-66	1	1	3	11	9	test	id-1290_AU10Open-33_AU14-66_AU24-66	valence	-0.402182141834104		2.2354980649597564
id-1290_AU10Open-33_AU14-66_AU24-66	1	1	3	11	9	test	id-1290_AU10Open-33_AU14-66_AU24-66	arousal	0.3587029913655523		2.2354980649597564
id-1306_AU12-100_AU14-33_AU17-33_AU27i-33	1	1	3	11	10	train	id-1306_AU12-100_AU14-33_AU17-33_AU27i-33	valence	-0.2717446904284487		3.6524214339851824
id-1306_AU12-100_AU14-33_AU17-33_AU27i-33	1	1	3	11	10	train	id-1306_AU12-100_AU14-33_AU17-33_AU27i-33	arousal	0.3315285223227074		3.6524214339851824
id-1341_AU14-100_AU15-100_AU24-100_AU6-100	1	1	3	11	11	test_extra	id-1341_AU14-100_AU15-100_AU24-100_AU6-100	valence	0.11141532307566396		0.91869993549426
id-1341_AU14-100_AU15-100_AU24-100_AU6-100	1	1	3	11	11	test_extra	id-1341_AU14-100_AU15-100_AU24-100_AU6-100	arousal	-0.4103344825469576		0.91869993549426
id-1297_AU14-66_AU16Open-33_AU25-100_AU26-100	1	1	3	11	12	test_extra	id-1297_AU14-66_AU16Open-33_AU25-100_AU26-100	valence	0.11413276997994845		2.1687866432876035
id-1297_AU14-66_AU16Open-33_AU25-100_AU26-100	1	1	3	11	12	test_extra	id-1297_AU14-66_AU16Open-33_AU25-100_AU26-100	arousal	0.3532680975569833		2.1687866432876035
id-1289_AU14-33_AU25-100_AU27i-66_AU7-33	1	1	3	11	13	test_extra	id-1289_AU14-33_AU25-100_AU27i-66_AU7-33	valence	-0.1630468142570692		1.510354374524468
id-1289_AU14-33_AU25-100_AU27i-66_AU7-33	1	1	3	11	13	test_extra	id-1289_AU14-33_AU25-100_AU27i-66_AU7-33	arousal	0.19837362401276756		1.510354374524468
id-1290_AU11-33_AU5-66	1	1	3	11	14	train	id-1290_AU11-33_AU5-66	valence	-0.2418527744813193		4.7203043541649095
id-1290_AU11-33_AU5-66	1	1	3	11	14	train	id-1290_AU11-33_AU5-66	arousal	-0.7445804517739495		4.7203043541649095
id-1295_AU10Open-66_AU20-66_AU27i-66	1	1	3	11	15	test_extra	id-1295_AU10Open-66_AU20-66_AU27i-66	valence	-0.804364283668208		2.2355626618882525
id-1295_AU10Open-66_AU20-66_AU27i-66	1	1	3	11	15	test_extra	id-1295_AU10Open-66_AU20-66_AU27i-66	arousal	0.33424596922699185		2.2355626618882525
id-1274_AU10Open-66_AU2-33_AU43-100_AU9-66	1	1	3	11	16	test	id-1274_AU10Open-66_AU2-33_AU43-100_AU9-66	valence	-0.6630570446454148		2.2605526176694184
id-1274_AU10Open-66_AU2-33_AU43-100_AU9-66	1	1	3	11	16	test	id-1274_AU10Open-66_AU2-33_AU43-100_AU9-66	arousal	-0.2798970311413021		2.2605526176694184
id-1309_AU15-33	1	1	3	11	17	test	id-1309_AU15-33	valence	0.4701183144412162		1.9854895375610802
id-1309_AU15-33	1	1	3	11	17	test	id-1309_AU15-33	arousal	-0.9538238634038548		1.9854895375610802
id-1269_AU15-66_AU16Open-66_AU26-33_AU27i-100	1	1	3	11	18	test	id-1269_AU15-66_AU16Open-66_AU26-33_AU27i-100	valence	-0.30163660637557804		1.6688033962282134
id-1269_AU15-66_AU16Open-66_AU26-33_AU27i-100	1	1	3	11	18	test	id-1269_AU15-66_AU16Open-66_AU26-33_AU27i-100	arousal	0.4592485268240783		1.6688033962282134
id-1354_AU12-33_AU13-33	1	1	3	11	19	train	id-1354_AU12-33_AU13-33	valence	0.2201131992470434		1.9272225041213449
id-1354_AU12-33_AU13-33	1	1	3	11	19	train	id-1354_AU12-33_AU13-33	arousal	-0.33424596922699185		1.9272225041213449
id-1302_AU17-66_AU27i-100_AU4-100_AU6-33_AU7-100	1	1	3	11	20	test_extra	id-1302_AU17-66_AU27i-100_AU4-100_AU6-33_AU7-100	valence	-0.2472876682898883		1.052026789010597
id-1302_AU17-66_AU27i-100_AU4-100_AU6-33_AU7-100	1	1	3	11	20	test_extra	id-1302_AU17-66_AU27i-100_AU4-100_AU6-33_AU7-100	arousal	0.7146885358268201		1.052026789010597
id-1358_AU15-66_AU2-33_AU26-66	1	1	3	11	21	test_extra	id-1358_AU15-66_AU2-33_AU26-66	valence	0.3940298011212506		1.81041495678528
id-1358_AU15-66_AU2-33_AU26-66	1	1	3	11	21	test_extra	id-1358_AU15-66_AU2-33_AU26-66	arousal	0.6549047039325613		1.81041495678528
id-1361_AU1-66_AU17-66_AU6-66_AU7-100	1	1	3	11	22	test_extra	id-1361_AU1-66_AU17-66_AU6-66_AU7-100	valence	0.3206587347055695		0.9019747643342272
id-1361_AU1-66_AU17-66_AU6-66_AU7-100	1	1	3	11	22	test_extra	id-1361_AU1-66_AU17-66_AU6-66_AU7-100	arousal	-0.4674008675369317		0.9019747643342272
id-1361_AU12-33_AU15-33_AU16Open-100_AU6-66	1	1	3	11	23	test	id-1361_AU12-33_AU15-33_AU16Open-100_AU6-66	valence	0.5462068277611818		5.803742758125737
id-1361_AU12-33_AU15-33_AU16Open-100_AU6-66	1	1	3	11	23	test	id-1361_AU12-33_AU15-33_AU16Open-100_AU6-66	arousal	-0.13315489830993985		5.803742758125737
id-1373_AU1-100_AU13-33_AU27i-33_AU6-33	1	1	3	11	24	test_extra	id-1373_AU1-100_AU13-33_AU27i-33_AU6-33	valence	-0.3532680975569833		1.635459910512509
id-1373_AU1-100_AU13-33_AU27i-33_AU6-33	1	1	3	11	24	test_extra	id-1373_AU1-100_AU13-33_AU27i-33_AU6-33	arousal	0.11685021688423293		1.635459910512509
id-1296_AU14-66_AU4-66_AU43-100_AU6-66	1	1	3	11	25	test_extra	id-1296_AU14-66_AU4-66_AU43-100_AU6-66	valence	-0.7527327924868029		1.893890187032412
id-1296_AU14-66_AU4-66_AU43-100_AU6-66	1	1	3	11	25	test_extra	id-1296_AU14-66_AU4-66_AU43-100_AU6-66	arousal	0.11685021688423293		1.893890187032412
id-1339_AU11-100_AU15-66_AU43-33	1	1	3	11	26	test_extra	id-1339_AU11-100_AU15-66_AU43-33	valence	-0.29620171256700906		5.903323451612778
id-1339_AU11-100_AU15-66_AU43-33	1	1	3	11	26	test_extra	id-1339_AU11-100_AU15-66_AU43-33	arousal	-0.2472876682898883		5.903323451612778
id-1358_AU2-66_AU22-33_AU7-66	1	1	3	11	27	train	id-1358_AU2-66_AU22-33_AU7-66	valence	0.6902315136882597		2.502210935535913
id-1358_AU2-66_AU22-33_AU7-66	1	1	3	11	27	train	id-1358_AU2-66_AU22-33_AU7-66	arousal	-0.7146885358268201		2.502210935535913
id-1291_AU20-33_AU24-100_AU25-33_AU27i-100	1	1	3	11	28	test	id-1291_AU20-33_AU24-100_AU25-33_AU27i-100	valence	-0.6087081065597252		1.1436267432500244
id-1291_AU20-33_AU24-100_AU25-33_AU27i-100	1	1	3	11	28	test	id-1291_AU20-33_AU24-100_AU25-33_AU27i-100	arousal	0.1521770266399313		1.1436267432500244
id-1380_AU22-66_AU7-33	1	1	3	11	29	test_extra	id-1380_AU22-66_AU7-33	valence	-0.4402263984940868		3.2689798001783856
id-1380_AU22-66_AU7-33	1	1	3	11	29	test_extra	id-1380_AU22-66_AU7-33	arousal	-0.9076272660310184		3.2689798001783856
id-1307_AU16Open-33_AU2-100_AU5-33_AU6-66	1	1	3	11	30	test_extra	id-1307_AU16Open-33_AU2-100_AU5-33_AU6-66	valence	-0.8097991774767771		1.1937560729411416
id-1307_AU16Open-33_AU2-100_AU5-33_AU6-66	1	1	3	11	30	test_extra	id-1307_AU16Open-33_AU2-100_AU5-33_AU6-66	arousal	-0.29891915947129355		1.1937560729411416
id-1280_AU7-66	1	1	3	11	31	train	id-1280_AU7-66	valence	0.28261447804558665		1.2865866892298072
id-1280_AU7-66	1	1	3	11	31	train	id-1280_AU7-66	arousal	-0.8750179031796047		1.2865866892298072
id-1345_AU25-100_AU43-66	1	1	3	11	32	test_extra	id-1345_AU25-100_AU43-66	valence	0.5081625711011989		2.0021419617123684
id-1345_AU25-100_AU43-66	1	1	3	11	32	test_extra	id-1345_AU25-100_AU43-66	arousal	-0.4972927834840611		2.0021419617123684
id-1366_AU5-100	1	1	3	11	33	test_extra	id-1366_AU5-100	valence	0.6684919384539837		3.310553960923244
id-1366_AU5-100	1	1	3	11	33	test_extra	id-1366_AU5-100	arousal	-0.7989293898596391		3.310553960923244
id-1274_AU2-33_AU20-100_AU25-66_AU6-66	1	1	3	11	34	train	id-1274_AU2-33_AU20-100_AU25-66_AU6-66	valence	-0.3369634161312764		1.0853660487600791
id-1274_AU2-33_AU20-100_AU25-66_AU6-66	1	1	3	11	34	train	id-1274_AU2-33_AU20-100_AU25-66_AU6-66	arousal	0.13587234521422434		1.0853660487600791
id-1378_AU1-66_AU20-66_AU7-33	1	1	3	11	35	test	id-1378_AU1-66_AU20-66_AU7-33	valence	-0.3478332037484143		4.910836617765199
id-1378_AU1-66_AU20-66_AU7-33	1	1	3	11	35	test	id-1378_AU1-66_AU20-66_AU7-33	arousal	-0.13587234521422434		4.910836617765199
id-1306_AU15-66_AU26-66_AU5-66	1	1	3	11	36	test_extra	id-1306_AU15-66_AU26-66_AU5-66	valence	-0.21467830543847446		1.518751069697828
id-1306_AU15-66_AU26-66_AU5-66	1	1	3	11	36	test_extra	id-1306_AU15-66_AU26-66_AU5-66	arousal	0.4646834206326473		1.518751069697828
id-1323_AU22-33_AU5-100_AU9-66	1	1	3	12	1	test_extra	id-1323_AU22-33_AU5-100_AU9-66	emotion	Boos	0.4880940994966136	1.5365043583306033
id-1339_AU11-100_AU15-66_AU43-33	1	1	3	12	2	test_extra	id-1339_AU11-100_AU15-66_AU43-33	emotion	Blij	0.4706061774253923	1.2612776729165491
id-1361_AU1-66_AU17-66_AU6-66_AU7-100	1	1	3	12	3	test_extra	id-1361_AU1-66_AU17-66_AU6-66_AU7-100	emotion	Verrassing	0.16538920995833747	1.9030753269616985
id-1358_AU15-66_AU2-33_AU26-66	1	1	3	12	4	test_extra	id-1358_AU15-66_AU2-33_AU26-66	emotion	Verrassing	0.6721123750575347	1.1114472096687678
id-1345_AU25-100_AU43-66	1	1	3	12	5	test_extra	id-1345_AU25-100_AU43-66	emotion	Geen van allen	0.0	1.0947169069786469
id-1354_AU12-33_AU13-33	1	1	3	12	6	train	id-1354_AU12-33_AU13-33	emotion	Bang	0.2702100545291906	3.053371250322016
id-1269_AU15-66_AU16Open-66_AU26-33_AU27i-100	1	1	3	12	7	test	id-1269_AU15-66_AU16Open-66_AU26-33_AU27i-100	emotion	Bang	0.5767122241985193	2.2115413581832404
id-1296_AU14-66_AU4-66_AU43-100_AU6-66	1	1	3	12	8	test_extra	id-1296_AU14-66_AU4-66_AU43-100_AU6-66	emotion	Walging	0.13851188303979725	2.378345117241224
id-1373_AU1-100_AU13-33_AU27i-33_AU6-33	1	1	3	12	9	test_extra	id-1373_AU1-100_AU13-33_AU27i-33_AU6-33	emotion	Geen van allen	0.0	5.6368879856054255
id-1378_AU1-66_AU20-66_AU7-33	1	1	3	12	10	test	id-1378_AU1-66_AU20-66_AU7-33	emotion	Blij	0.27300792879430835	2.2115434711677158
id-1291_AU20-33_AU24-100_AU25-33_AU27i-100	1	1	3	12	11	test	id-1291_AU20-33_AU24-100_AU25-33_AU27i-100	emotion	Verrassing	0.3494881134291597	1.7699015138323375
id-1342_AU12-100_AU20-100_AU6-66	1	1	3	12	12	train	id-1342_AU12-100_AU20-100_AU6-66	emotion	Blij	0.4027717583301813	1.7281809535052162
id-1302_AU17-66_AU27i-100_AU4-100_AU6-33_AU7-100	1	1	3	12	13	test_extra	id-1302_AU17-66_AU27i-100_AU4-100_AU6-33_AU7-100	emotion	Bang	0.4191030207111757	3.4367941691316446
id-1274_AU10Open-66_AU2-33_AU43-100_AU9-66	1	1	3	12	14	test	id-1274_AU10Open-66_AU2-33_AU43-100_AU9-66	emotion	Walging	0.5210665093341605	1.1446723683020537
id-1295_AU10Open-66_AU20-66_AU27i-66	1	1	3	12	15	test_extra	id-1295_AU10Open-66_AU20-66_AU27i-66	emotion	Bang	0.80739612285395	1.1119304792164255
id-1341_AU14-100_AU15-100_AU24-100_AU6-100	1	1	3	12	16	test_extra	id-1341_AU14-100_AU15-100_AU24-100_AU6-100	emotion	Blij	0.5562854418312769	1.2032032228435128
id-1341_AU24-66_AU4-66_AU9-66	1	1	3	12	17	test_extra	id-1341_AU24-66_AU4-66_AU9-66	emotion	Walging	0.3433171890652813	2.7866767928890117
id-1280_AU7-66	1	1	3	12	18	train	id-1280_AU7-66	emotion	Bang	0.1877897668548779	1.5031487984215346
id-1296_AU15-66_AU24-66	1	1	3	12	19	test_extra	id-1296_AU15-66_AU24-66	emotion	Verdrietig	0.1863833290956273	1.4281073914880835
id-1289_AU14-33_AU25-100_AU27i-66_AU7-33	1	1	3	12	20	test_extra	id-1289_AU14-33_AU25-100_AU27i-66_AU7-33	emotion	Verrassing	0.4616237345245194	5.570499850430678
id-1307_AU16Open-33_AU2-100_AU5-33_AU6-66	1	1	3	12	21	test_extra	id-1307_AU16Open-33_AU2-100_AU5-33_AU6-66	emotion	Geen van allen	0.0	2.2864439119057347
id-1290_AU11-33_AU5-66	1	1	3	12	22	train	id-1290_AU11-33_AU5-66	emotion	Boos	0.2343675415101695	1.6781633100918043
id-1361_AU12-33_AU15-33_AU16Open-100_AU6-66	1	1	3	12	23	test	id-1361_AU12-33_AU15-33_AU16Open-100_AU6-66	emotion	Blij	0.5195961404348742	1.7698891377849575
id-1358_AU2-66_AU22-33_AU7-66	1	1	3	12	24	train	id-1358_AU2-66_AU22-33_AU7-66	emotion	Geen van allen	0.0	0.8197652112939977
id-1306_AU15-66_AU26-66_AU5-66	1	1	3	12	25	test_extra	id-1306_AU15-66_AU26-66_AU5-66	emotion	Bang	0.5871714231253523	1.2613307993633498
id-1297_AU14-66_AU16Open-33_AU25-100_AU26-100	1	1	3	12	26	test_extra	id-1297_AU14-66_AU16Open-33_AU25-100_AU26-100	emotion	Verrassing	0.4500793791832334	1.7448554130569391
id-1274_AU14-100_AU26-33	1	1	3	12	27	test_extra	id-1274_AU14-100_AU26-33	emotion	Bang	0.41607523347541	1.1111387140563238
id-1309_AU15-33	1	1	3	12	28	test	id-1309_AU15-33	emotion	Geen van allen	0.0	0.736294508868923
id-1366_AU5-100	1	1	3	12	29	test_extra	id-1366_AU5-100	emotion	Geen van allen	0.0	0.9613287769361704
id-1358_AU14-100	1	1	3	12	30	test_extra	id-1358_AU14-100	emotion	Blij	0.4022508159863812	1.1948490891982146
id-1380_AU22-66_AU7-33	1	1	3	12	31	test_extra	id-1380_AU22-66_AU7-33	emotion	Geen van allen	0.0	1.7364333620798789
id-1362_AU11-100_AU17-33_AU43-66	1	1	3	12	32	train	id-1362_AU11-100_AU17-33_AU43-66	emotion	Walging	0.08477264528525137	1.9949152557728669
id-1290_AU10Open-33_AU14-66_AU24-66	1	1	3	12	33	test	id-1290_AU10Open-33_AU14-66_AU24-66	emotion	Walging	0.3460493878374163	0.9530796887638644
id-1264_AU11-33_AU13-33_AU22-33	1	1	3	12	34	test_extra	id-1264_AU11-33_AU13-33_AU22-33	emotion	Geen van allen	0.0	0.736670619958204
id-1274_AU2-33_AU20-100_AU25-66_AU6-66	1	1	3	12	35	train	id-1274_AU2-33_AU20-100_AU25-66_AU6-66	emotion	Bang	0.24627127518780176	2.37829832974694
id-1306_AU12-100_AU14-33_AU17-33_AU27i-33	1	1	3	12	36	train	id-1306_AU12-100_AU14-33_AU17-33_AU27i-33	emotion	Verrassing	0.3164874877664942	2.336528868941059
id-1302_AU1-33_AU22-33_AU24-66_AU43-100_AU9-66	1	1	4	13	1	test_extra	id-1302_AU1-33_AU22-33_AU24-66_AU43-100_AU9-66	valence	-0.17935149568277614		4.6106972514007785
id-1302_AU1-33_AU22-33_AU24-66_AU43-100_AU9-66	1	1	4	13	1	test_extra	id-1302_AU1-33_AU22-33_AU24-66_AU43-100_AU9-66	arousal	-0.6168604472725784		4.6106972514007785
id-1345_AU11-33_AU25-33_AU9-66	1	1	4	13	2	train	id-1345_AU11-33_AU25-33_AU9-66	valence	0.15761192044850025		3.7106881655709
id-1345_AU11-33_AU25-33_AU9-66	1	1	4	13	2	train	id-1345_AU11-33_AU25-33_AU9-66	arousal	-0.7554502393910874		3.7106881655709
id-1347_AU10Open-100_AU25-100	1	1	4	13	3	test_extra	id-1347_AU10Open-100_AU25-100	valence	-0.3532680975569833		3.4773326660333623
id-1347_AU10Open-100_AU25-100	1	1	4	13	3	test_extra	id-1347_AU10Open-100_AU25-100	arousal	0.3451157568441299		3.4773326660333623
id-1302_AU20-66_AU4-33_AU5-33	1	1	4	13	4	test_extra	id-1302_AU20-66_AU4-33_AU5-33	valence	-0.5706638498997423		1.510320566786504
id-1302_AU20-66_AU4-33_AU5-33	1	1	4	13	4	test_extra	id-1302_AU20-66_AU4-33_AU5-33	arousal	-0.7527327924868029		1.510320566786504
id-1295_AU24-100_AU25-100	1	1	4	13	5	train	id-1295_AU24-100_AU25-100	valence	-0.29620171256700906		5.694304995908168
id-1295_AU24-100_AU25-100	1	1	4	13	5	train	id-1295_AU24-100_AU25-100	arousal	-0.6766442791668373		5.694304995908168
id-1362_AU5-33_AU6-66_AU7-33	1	1	4	13	6	test	id-1362_AU5-33_AU6-66_AU7-33	valence	0.5733812968040267		2.30221190147131
id-1362_AU5-33_AU6-66_AU7-33	1	1	4	13	6	test	id-1362_AU5-33_AU6-66_AU7-33	arousal	-0.7228408765396734		2.30221190147131
id-1370_AU2-33_AU25-66_AU4-100	1	1	4	13	7	test_extra	id-1370_AU2-33_AU25-66_AU4-100	valence	0.5978383189425871		1.5689021329353636
id-1370_AU2-33_AU25-66_AU4-100	1	1	4	13	7	test_extra	id-1370_AU2-33_AU25-66_AU4-100	arousal	0.4375089515898024		1.5689021329353636
id-1273_AU1-33_AU13-33_AU26-33	1	1	4	13	8	test	id-1273_AU1-33_AU13-33_AU26-33	valence	0.5407719339526129		1.9439431474584128
id-1273_AU1-33_AU13-33_AU26-33	1	1	4	13	8	test	id-1273_AU1-33_AU13-33_AU26-33	arousal	0.2500051151941728		1.9439431474584128
id-1360_AU1-33_AU15-33_AU26-33	1	1	4	13	9	train	id-1360_AU1-33_AU15-33_AU26-33	valence	-0.4402263984940868		2.6605588358788737
id-1360_AU1-33_AU15-33_AU26-33	1	1	4	13	9	train	id-1360_AU1-33_AU15-33_AU26-33	arousal	0.30163660637557804		2.6605588358788737
id-1380_AU1-100_AU15-66_AU7-66	1	1	4	13	10	test_extra	id-1380_AU1-100_AU15-66_AU7-66	valence	-0.33968086303556083		3.352308932698179
id-1380_AU1-100_AU15-66_AU7-66	1	1	4	13	10	test_extra	id-1380_AU1-100_AU15-66_AU7-66	arousal	-0.201091070917052		3.352308932698179
id-1269_AU11-100_AU25-33_AU43-66	1	1	4	13	11	test_extra	id-1269_AU11-100_AU25-33_AU43-66	valence	-0.3179412878012849		1.3686471259952668
id-1269_AU11-100_AU25-33_AU43-66	1	1	4	13	11	test_extra	id-1269_AU11-100_AU25-33_AU43-66	arousal	-0.5081625711011989		1.3686471259952668
id-1306_AU11-33_AU6-66	1	1	4	13	12	test_extra	id-1306_AU11-33_AU6-66	valence	-0.5652289560911733		3.919110458031355
id-1306_AU11-33_AU6-66	1	1	4	13	12	test_extra	id-1306_AU11-33_AU6-66	arousal	-0.28261447804558665		3.919110458031355
id-1307_AU1-33_AU16Open-33_AU22-100_AU27i-33	1	1	4	13	13	train	id-1307_AU1-33_AU16Open-33_AU22-100_AU27i-33	valence	0.2744621373327332		1.7188370379471962
id-1307_AU1-33_AU16Open-33_AU22-100_AU27i-33	1	1	4	13	13	train	id-1307_AU1-33_AU16Open-33_AU22-100_AU27i-33	arousal	0.6494698101239924		1.7188370379471962
id-1344_AU13-66_AU14-66_AU24-33_AU9-33	1	1	4	13	14	test	id-1344_AU13-66_AU14-66_AU24-33_AU9-33	valence	-0.6549047039325613		1.852335344994572
id-1344_AU13-66_AU14-66_AU24-33_AU9-33	1	1	4	13	14	test	id-1344_AU13-66_AU14-66_AU24-33_AU9-33	arousal	0.26902724352416424		1.852335344994572
id-1354_AU16Open-66_AU27i-33_AU5-100	1	1	4	13	15	train	id-1354_AU16Open-66_AU27i-33_AU5-100	valence	-0.8233864119981995		1.5103622227497908
id-1354_AU16Open-66_AU27i-33_AU5-100	1	1	4	13	15	train	id-1354_AU16Open-66_AU27i-33_AU5-100	arousal	0.8723004562753204		1.5103622227497908
id-1260_AU9-33	1	1	4	13	16	train	id-1260_AU9-33	valence	-0.38044256659982817		3.7607353907551437
id-1260_AU9-33	1	1	4	13	16	train	id-1260_AU9-33	arousal	-0.26902724352416424		3.7607353907551437
id-1377_AU13-66_AU14-100_AU9-66	1	1	4	13	17	test_extra	id-1377_AU13-66_AU14-100_AU9-66	valence	0.4266391639726645		1.7605271109387104
id-1377_AU13-66_AU14-100_AU9-66	1	1	4	13	17	test_extra	id-1377_AU13-66_AU14-100_AU9-66	arousal	0.4103344825469576		1.7605271109387104
id-1367_AU25-66_AU4-66_AU6-33	1	1	4	13	18	test	id-1367_AU25-66_AU4-66_AU6-33	valence	-0.26902724352416424		2.060556300298231
id-1367_AU25-66_AU4-66_AU6-33	1	1	4	13	18	test	id-1367_AU25-66_AU4-66_AU6-33	arousal	-0.5679464029954577		2.060556300298231
id-1354_AU1-66_AU10Open-100	1	1	4	13	19	test	id-1354_AU1-66_AU10Open-100	valence	-0.5597940622826043		2.360531457647994
id-1354_AU1-66_AU10Open-100	1	1	4	13	19	test	id-1354_AU1-66_AU10Open-100	arousal	0.28533192494987114		2.360531457647994
id-1339_AU11-100_AU20-100_AU4-33	1	1	4	13	20	test_extra	id-1339_AU11-100_AU20-100_AU4-33	valence	-0.3940298011212506		4.677411691622184
id-1339_AU11-100_AU20-100_AU4-33	1	1	4	13	20	test_extra	id-1339_AU11-100_AU20-100_AU4-33	arousal	-0.21739575234275896		4.677411691622184
id-1291_AU4-100_AU43-33_AU7-66	1	1	4	13	21	test	id-1291_AU4-100_AU43-33_AU7-66	valence	-0.23913532757703485		2.743788960022357
id-1291_AU4-100_AU43-33_AU7-66	1	1	4	13	21	test	id-1291_AU4-100_AU43-33_AU7-66	arousal	-0.4755532082497852		2.743788960022357
id-1344_AU16Open-33	1	1	4	13	22	train	id-1344_AU16Open-33	valence	-0.31522384089700045		1.7020457605849515
id-1344_AU16Open-33	1	1	4	13	22	train	id-1344_AU16Open-33	arousal	-0.9375191819781479		1.7020457605849515
id-1380_AU13-66_AU20-66_AU22-100_AU5-100	1	1	4	13	23	test_extra	id-1380_AU13-66_AU20-66_AU22-100_AU5-100	valence	-0.6114255534640095		4.3691095675594624
id-1380_AU13-66_AU20-66_AU22-100_AU5-100	1	1	4	13	23	test_extra	id-1380_AU13-66_AU20-66_AU22-100_AU5-100	arousal	-0.2418527744813193		4.3691095675594624
id-1344_AU2-33_AU20-100_AU24-100	1	1	4	13	24	test	id-1344_AU2-33_AU20-100_AU24-100	valence	0.3043540532798626		3.3272887914372404
id-1344_AU2-33_AU20-100_AU24-100	1	1	4	13	24	test	id-1344_AU2-33_AU20-100_AU24-100	arousal	0.2418527744813193		3.3272887914372404
id-1362_AU12-66_AU17-100_AU22-100	1	1	4	13	25	train	id-1362_AU12-66_AU17-100_AU22-100	valence	0.4891404427712077		2.260530884123
id-1362_AU12-66_AU17-100_AU22-100	1	1	4	13	25	train	id-1362_AU12-66_AU17-100_AU22-100	arousal	0.4293566108769489		2.260530884123
id-1367_AU14-100_AU4-66_AU5-100	1	1	4	13	26	test_extra	id-1367_AU14-100_AU4-66_AU5-100	valence	-0.5217498056226214		2.468976721259424
id-1367_AU14-100_AU4-66_AU5-100	1	1	4	13	26	test_extra	id-1367_AU14-100_AU4-66_AU5-100	arousal	0.28261447804558665		2.468976721259424
