	rep	session	run	block	trial	trial_type	rating_type	rating	rating_RT
id-1315_gender-M_age-16	1	4	1	1	1	id-1315_gender-M_age-16	trustworthiness	0.0	2.151
id-1378_gender-F_age-19	1	4	1	1	2	id-1378_gender-F_age-19	trustworthiness	0.5325	3.068
id-1370_gender-M_age-19	1	4	1	1	3	id-1370_gender-M_age-19	trustworthiness	0.37749999999999995	2.943
id-1269_gender-F_age-23	1	4	1	1	4	id-1269_gender-F_age-23	trustworthiness	-0.35750000000000004	2.576
id-1297_gender-F_age-22	1	4	1	1	5	id-1297_gender-F_age-22	trustworthiness	-0.06999999999999995	2.085
id-1294_gender-F_age-26	1	4	1	1	6	id-1294_gender-F_age-26	trustworthiness	0.21999999999999997	2.2430000000000003
id-1289_gender-F_age-20	1	4	1	1	7	id-1289_gender-F_age-20	trustworthiness	0.1100000000000001	2.501
id-1354_gender-F_age-23	1	4	1	1	8	id-1354_gender-F_age-23	trustworthiness	0.21750000000000003	2.476
id-1270_gender-F_age-30	1	4	1	1	9	id-1270_gender-F_age-30	trustworthiness	0.2975000000000001	2.501
id-1345_gender-M_age-18	1	4	1	1	10	id-1345_gender-M_age-18	trustworthiness	0.5025	2.218
id-1380_gender-F_age-21	1	4	1	1	11	id-1380_gender-F_age-21	trustworthiness	0.4175	1.693
id-1373_gender-F_age-30	1	4	1	1	12	id-1373_gender-F_age-30	trustworthiness	0.44999999999999996	2.568
id-1366_gender-F_age-24	1	4	1	1	13	id-1366_gender-F_age-24	trustworthiness	0.595	3.035
id-1360_gender-F_age-20	1	4	1	1	14	id-1360_gender-F_age-20	trustworthiness	-0.21750000000000003	1.585
id-1309_gender-M_age-22	1	4	1	1	15	id-1309_gender-M_age-22	trustworthiness	0.1499999999999999	1.726
id-1342_gender-M_age-19	1	4	1	1	16	id-1342_gender-M_age-19	trustworthiness	0.0	0.76
id-1273_gender-F_age-20	1	4	1	1	17	id-1273_gender-F_age-20	trustworthiness	0.41999999999999993	1.885
id-1347_gender-F_age-27	1	4	1	1	18	id-1347_gender-F_age-27	trustworthiness	0.24750000000000005	2.477
id-1344_gender-M_age-25	1	4	1	1	19	id-1344_gender-M_age-25	trustworthiness	-0.08750000000000002	2.343
id-1377_gender-M_age-20	1	4	1	1	20	id-1377_gender-M_age-20	trustworthiness	0.2450000000000001	1.693
id-1323_gender-F_age-23	1	4	1	1	21	id-1323_gender-F_age-23	trustworthiness	0.1499999999999999	1.86
id-1335_gender-M_age-23	1	4	1	1	22	id-1335_gender-M_age-23	trustworthiness	0.4075	1.485
id-1362_gender-F_age-24	1	4	1	1	23	id-1362_gender-F_age-24	trustworthiness	0.2825	1.301
id-1279_gender-F_age-19	1	4	1	1	24	id-1279_gender-F_age-19	trustworthiness	0.5725	1.9180000000000001
id-1355_gender-F_age-19	1	4	1	1	25	id-1355_gender-F_age-19	trustworthiness	0.20750000000000002	1.626
id-1260_gender-F_age-22	1	4	1	1	26	id-1260_gender-F_age-22	trustworthiness	0.32000000000000006	1.693
id-1356_gender-F_age-20	1	4	1	1	27	id-1356_gender-F_age-20	trustworthiness	0.1775	1.401
id-1367_gender-M_age-20	1	4	1	1	28	id-1367_gender-M_age-20	trustworthiness	-0.21999999999999997	0.868
id-1358_gender-F_age-32	1	4	1	1	29	id-1358_gender-F_age-32	trustworthiness	0.25249999999999995	1.2930000000000001
id-1296_gender-F_age-23	1	4	1	1	30	id-1296_gender-F_age-23	trustworthiness	0.43500000000000005	1.568
id-1302_gender-F_age-30	1	4	1	1	31	id-1302_gender-F_age-30	trustworthiness	0.47	1.268
id-1361_gender-F_age-19	1	4	1	1	32	id-1361_gender-F_age-19	trustworthiness	0.2825	1.443
id-1280_gender-M_age-18	1	4	1	1	33	id-1280_gender-M_age-18	trustworthiness	0.14749999999999996	3.985
id-1307_gender-F_age-22	1	4	1	1	34	id-1307_gender-F_age-22	trustworthiness	0.47750000000000004	1.493
id-1339_gender-F_age-30	1	4	1	1	35	id-1339_gender-F_age-30	trustworthiness	0.48750000000000004	1.135
id-1310_gender-F_age-28	1	4	1	1	36	id-1310_gender-F_age-28	trustworthiness	0.49750000000000005	1.485
id-1363_gender-M_age-19	1	4	1	1	37	id-1363_gender-M_age-19	trustworthiness	0.24750000000000005	1.31
id-1264_gender-F_age-26	1	4	1	1	38	id-1264_gender-F_age-26	trustworthiness	-0.11499999999999999	1.76
id-1274_gender-F_age-33	1	4	1	1	39	id-1274_gender-F_age-33	trustworthiness	-0.3425	1.501
id-1291_gender-F_age-24	1	4	1	1	40	id-1291_gender-F_age-24	trustworthiness	-0.20999999999999996	2.093
id-1318_gender-M_age-35	1	4	1	1	41	id-1318_gender-M_age-35	trustworthiness	-0.4225	1.7930000000000001
id-1266_gender-M_age-21	1	4	1	1	42	id-1266_gender-M_age-21	trustworthiness	0.1100000000000001	1.018
id-1295_gender-F_age-26	1	4	1	1	43	id-1295_gender-F_age-26	trustworthiness	0.0	0.735
id-1306_gender-F_age-21	1	4	1	1	44	id-1306_gender-F_age-21	trustworthiness	0.23750000000000004	1.426
id-1376_gender-F_age-19	1	4	1	1	45	id-1376_gender-F_age-19	trustworthiness	0.10499999999999998	2.951
id-1293_gender-F_age-31	1	4	1	1	46	id-1293_gender-F_age-31	trustworthiness	0.32000000000000006	1.268
id-1285_gender-F_age-19	1	4	1	1	47	id-1285_gender-F_age-19	trustworthiness	0.27249999999999996	1.41
id-1341_gender-M_age-19	1	4	1	1	48	id-1341_gender-M_age-19	trustworthiness	0.52	1.1179999999999999
id-1311_gender-F_age-22	1	4	1	1	49	id-1311_gender-F_age-22	trustworthiness	0.21750000000000003	1.26
id-1290_gender-F_age-23	1	4	1	1	50	id-1290_gender-F_age-23	trustworthiness	-0.47	1.393
id-1310_gender-F_age-28	1	4	1	2	1	id-1310_gender-F_age-28	attractiveness	0.2250000000000001	2.6260000000000003
id-1280_gender-M_age-18	1	4	1	2	2	id-1280_gender-M_age-18	attractiveness	-0.5375	3.3930000000000002
id-1260_gender-F_age-22	1	4	1	2	3	id-1260_gender-F_age-22	attractiveness	-0.20750000000000002	1.743
id-1362_gender-F_age-24	1	4	1	2	4	id-1362_gender-F_age-24	attractiveness	-0.38749999999999996	3.135
id-1274_gender-F_age-33	1	4	1	2	5	id-1274_gender-F_age-33	attractiveness	-0.06999999999999995	1.952
id-1266_gender-M_age-21	1	4	1	2	6	id-1266_gender-M_age-21	attractiveness	0.26	1.301
id-1354_gender-F_age-23	1	4	1	2	7	id-1354_gender-F_age-23	attractiveness	-0.6625	4.127
id-1291_gender-F_age-24	1	4	1	2	8	id-1291_gender-F_age-24	attractiveness	-0.22499999999999998	1.635
id-1269_gender-F_age-23	1	4	1	2	9	id-1269_gender-F_age-23	attractiveness	-0.36250000000000004	1.659
id-1264_gender-F_age-26	1	4	1	2	10	id-1264_gender-F_age-26	attractiveness	-0.485	1.885
id-1347_gender-F_age-27	1	4	1	2	11	id-1347_gender-F_age-27	attractiveness	-0.31999999999999995	1.443
id-1370_gender-M_age-19	1	4	1	2	12	id-1370_gender-M_age-19	attractiveness	0.5550000000000002	2.185
id-1323_gender-F_age-23	1	4	1	2	13	id-1323_gender-F_age-23	attractiveness	0.25249999999999995	1.6680000000000001
id-1285_gender-F_age-19	1	4	1	2	14	id-1285_gender-F_age-19	attractiveness	-0.48249999999999993	3.0010000000000003
id-1344_gender-M_age-25	1	4	1	2	15	id-1344_gender-M_age-25	attractiveness	-0.6175	1.385
id-1294_gender-F_age-26	1	4	1	2	16	id-1294_gender-F_age-26	attractiveness	-0.535	1.5430000000000001
id-1273_gender-F_age-20	1	4	1	2	17	id-1273_gender-F_age-20	attractiveness	-0.0024999999999999467	299.349
id-1342_gender-M_age-19	1	4	1	2	18	id-1342_gender-M_age-19	attractiveness	-0.43000000000000005	4.86
id-1318_gender-M_age-35	1	4	1	2	19	id-1318_gender-M_age-35	attractiveness	-0.575	3.66
id-1311_gender-F_age-22	1	4	1	2	20	id-1311_gender-F_age-22	attractiveness	-0.69	2.251
id-1295_gender-F_age-26	1	4	1	2	21	id-1295_gender-F_age-26	attractiveness	-0.35750000000000004	2.593
id-1341_gender-M_age-19	1	4	1	2	22	id-1341_gender-M_age-19	attractiveness	0.12749999999999995	1.81
id-1363_gender-M_age-19	1	4	1	2	23	id-1363_gender-M_age-19	attractiveness	-0.365	2.6180000000000003
id-1306_gender-F_age-21	1	4	1	2	24	id-1306_gender-F_age-21	attractiveness	-0.44499999999999995	2.918
id-1373_gender-F_age-30	1	4	1	2	25	id-1373_gender-F_age-30	attractiveness	-0.52	1.885
id-1378_gender-F_age-19	1	4	1	2	26	id-1378_gender-F_age-19	attractiveness	0.23750000000000004	1.085
id-1345_gender-M_age-18	1	4	1	2	27	id-1345_gender-M_age-18	attractiveness	0.2549999999999999	1.551
id-1290_gender-F_age-23	1	4	1	2	28	id-1290_gender-F_age-23	attractiveness	-0.43000000000000005	3.677
id-1293_gender-F_age-31	1	4	1	2	29	id-1293_gender-F_age-31	attractiveness	-0.4675	2.535
id-1279_gender-F_age-19	1	4	1	2	30	id-1279_gender-F_age-19	attractiveness	-0.3225	1.568
id-1335_gender-M_age-23	1	4	1	2	31	id-1335_gender-M_age-23	attractiveness	0.0	1.151
id-1296_gender-F_age-23	1	4	1	2	32	id-1296_gender-F_age-23	attractiveness	-0.2925	1.318
id-1270_gender-F_age-30	1	4	1	2	33	id-1270_gender-F_age-30	attractiveness	-0.365	2.176
id-1289_gender-F_age-20	1	4	1	2	34	id-1289_gender-F_age-20	attractiveness	0.09499999999999997	1.026
id-1361_gender-F_age-19	1	4	1	2	35	id-1361_gender-F_age-19	attractiveness	-0.29500000000000004	1.726
id-1358_gender-F_age-32	1	4	1	2	36	id-1358_gender-F_age-32	attractiveness	-0.36	1.585
id-1366_gender-F_age-24	1	4	1	2	37	id-1366_gender-F_age-24	attractiveness	-0.36750000000000005	2.11
id-1302_gender-F_age-30	1	4	1	2	38	id-1302_gender-F_age-30	attractiveness	-0.3325	1.159
id-1297_gender-F_age-22	1	4	1	2	39	id-1297_gender-F_age-22	attractiveness	-0.12250000000000005	0.8759999999999999
id-1309_gender-M_age-22	1	4	1	2	40	id-1309_gender-M_age-22	attractiveness	-0.49249999999999994	2.093
id-1367_gender-M_age-20	1	4	1	2	41	id-1367_gender-M_age-20	attractiveness	0.37250000000000005	1.126
id-1355_gender-F_age-19	1	4	1	2	42	id-1355_gender-F_age-19	attractiveness	-0.3425	1.8430000000000002
id-1380_gender-F_age-21	1	4	1	2	43	id-1380_gender-F_age-21	attractiveness	-0.37	1.943
id-1307_gender-F_age-22	1	4	1	2	44	id-1307_gender-F_age-22	attractiveness	-0.45500000000000007	1.385
id-1339_gender-F_age-30	1	4	1	2	45	id-1339_gender-F_age-30	attractiveness	-0.125	1.143
id-1376_gender-F_age-19	1	4	1	2	46	id-1376_gender-F_age-19	attractiveness	-0.22999999999999998	2.6510000000000002
id-1315_gender-M_age-16	1	4	1	2	47	id-1315_gender-M_age-16	attractiveness	-0.3400000000000001	1.676
id-1356_gender-F_age-20	1	4	1	2	48	id-1356_gender-F_age-20	attractiveness	-0.31000000000000005	2.3680000000000003
id-1377_gender-M_age-20	1	4	1	2	49	id-1377_gender-M_age-20	attractiveness	0.36749999999999994	1.068
id-1360_gender-F_age-20	1	4	1	2	50	id-1360_gender-F_age-20	attractiveness	-0.5125	1.685
id-1376_gender-F_age-19	1	4	1	3	1	id-1376_gender-F_age-19	dominance	-0.3425	3.5260000000000002
id-1355_gender-F_age-19	1	4	1	3	2	id-1355_gender-F_age-19	dominance	0.22999999999999998	1.2590000000000001
id-1345_gender-M_age-18	1	4	1	3	3	id-1345_gender-M_age-18	dominance	0.18999999999999995	1.56
id-1366_gender-F_age-24	1	4	1	3	4	id-1366_gender-F_age-24	dominance	0.2925	1.551
id-1294_gender-F_age-26	1	4	1	3	5	id-1294_gender-F_age-26	dominance	-0.35250000000000004	1.068
id-1270_gender-F_age-30	1	4	1	3	6	id-1270_gender-F_age-30	dominance	0.1725000000000001	1.1179999999999999
id-1293_gender-F_age-31	1	4	1	3	7	id-1293_gender-F_age-31	dominance	0.4375	1.41
id-1335_gender-M_age-23	1	4	1	3	8	id-1335_gender-M_age-23	dominance	0.3899999999999999	1.251
id-1290_gender-F_age-23	1	4	1	3	9	id-1290_gender-F_age-23	dominance	0.5874999999999999	1.601
id-1310_gender-F_age-28	1	4	1	3	10	id-1310_gender-F_age-28	dominance	0.385	1.351
id-1318_gender-M_age-35	1	4	1	3	11	id-1318_gender-M_age-35	dominance	0.6299999999999999	2.11
id-1302_gender-F_age-30	1	4	1	3	12	id-1302_gender-F_age-30	dominance	-0.485	1.385
id-1280_gender-M_age-18	1	4	1	3	13	id-1280_gender-M_age-18	dominance	-0.4625	1.51
id-1307_gender-F_age-22	1	4	1	3	14	id-1307_gender-F_age-22	dominance	-0.6625	1.476
id-1373_gender-F_age-30	1	4	1	3	15	id-1373_gender-F_age-30	dominance	-0.39749999999999996	2.5180000000000002
id-1362_gender-F_age-24	1	4	1	3	16	id-1362_gender-F_age-24	dominance	-0.4125	1.276
id-1377_gender-M_age-20	1	4	1	3	17	id-1377_gender-M_age-20	dominance	-0.44499999999999995	4.093
id-1266_gender-M_age-21	1	4	1	3	18	id-1266_gender-M_age-21	dominance	0.25249999999999995	1.2009999999999998
id-1339_gender-F_age-30	1	4	1	3	19	id-1339_gender-F_age-30	dominance	-0.5575	1.835
id-1279_gender-F_age-19	1	4	1	3	20	id-1279_gender-F_age-19	dominance	-0.825	1.5430000000000001
id-1347_gender-F_age-27	1	4	1	3	21	id-1347_gender-F_age-27	dominance	0.1924999999999999	2.068
id-1269_gender-F_age-23	1	4	1	3	22	id-1269_gender-F_age-23	dominance	0.4750000000000001	1.393
id-1285_gender-F_age-19	1	4	1	3	23	id-1285_gender-F_age-19	dominance	0.32000000000000006	2.351
id-1273_gender-F_age-20	1	4	1	3	24	id-1273_gender-F_age-20	dominance	-0.26	2.218
id-1378_gender-F_age-19	1	4	1	3	25	id-1378_gender-F_age-19	dominance	-0.4325	1.1179999999999999
id-1306_gender-F_age-21	1	4	1	3	26	id-1306_gender-F_age-21	dominance	-0.37250000000000005	1.41
id-1360_gender-F_age-20	1	4	1	3	27	id-1360_gender-F_age-20	dominance	-0.5	1.435
id-1274_gender-F_age-33	1	4	1	3	28	id-1274_gender-F_age-33	dominance	0.7749999999999999	1.868
id-1291_gender-F_age-24	1	4	1	3	29	id-1291_gender-F_age-24	dominance	0.4075	1.026
id-1361_gender-F_age-19	1	4	1	3	30	id-1361_gender-F_age-19	dominance	-0.4425	0.9259999999999999
id-1309_gender-M_age-22	1	4	1	3	31	id-1309_gender-M_age-22	dominance	-0.32999999999999996	1.694
id-1358_gender-F_age-32	1	4	1	3	32	id-1358_gender-F_age-32	dominance	-0.5	1.176
id-1297_gender-F_age-22	1	4	1	3	33	id-1297_gender-F_age-22	dominance	0.3600000000000001	1.4680000000000002
id-1344_gender-M_age-25	1	4	1	3	34	id-1344_gender-M_age-25	dominance	0.33499999999999996	1.085
id-1356_gender-F_age-20	1	4	1	3	35	id-1356_gender-F_age-20	dominance	-0.19999999999999996	1.043
id-1264_gender-F_age-26	1	4	1	3	36	id-1264_gender-F_age-26	dominance	-0.475	1.952
id-1367_gender-M_age-20	1	4	1	3	37	id-1367_gender-M_age-20	dominance	0.5475000000000001	0.9009999999999999
id-1311_gender-F_age-22	1	4	1	3	38	id-1311_gender-F_age-22	dominance	-0.49249999999999994	1.2429999999999999
id-1341_gender-M_age-19	1	4	1	3	39	id-1341_gender-M_age-19	dominance	0.3600000000000001	0.968
id-1289_gender-F_age-20	1	4	1	3	40	id-1289_gender-F_age-20	dominance	0.2925	2.06
id-1363_gender-M_age-19	1	4	1	3	41	id-1363_gender-M_age-19	dominance	-0.32999999999999996	0.968
id-1295_gender-F_age-26	1	4	1	3	42	id-1295_gender-F_age-26	dominance	0.2925	2.151
id-1370_gender-M_age-19	1	4	1	3	43	id-1370_gender-M_age-19	dominance	-0.44999999999999996	0.985
id-1354_gender-F_age-23	1	4	1	3	44	id-1354_gender-F_age-23	dominance	-0.525	1.335
id-1315_gender-M_age-16	1	4	1	3	45	id-1315_gender-M_age-16	dominance	0.37749999999999995	2.426
id-1342_gender-M_age-19	1	4	1	3	46	id-1342_gender-M_age-19	dominance	0.6425000000000001	1.6769999999999998
id-1380_gender-F_age-21	1	4	1	3	47	id-1380_gender-F_age-21	dominance	-0.5625	1.401
id-1260_gender-F_age-22	1	4	1	3	48	id-1260_gender-F_age-22	dominance	-0.935	2.568
id-1323_gender-F_age-23	1	4	1	3	49	id-1323_gender-F_age-23	dominance	0.09749999999999992	1.301
id-1296_gender-F_age-23	1	4	1	3	50	id-1296_gender-F_age-23	dominance	-0.39	0.8759999999999999
id-1318_gender-M_age-35	1	4	1	8	1	id-1318_gender-M_age-35	arousal	0.6548944735442157	3.11088096227013
id-1318_gender-M_age-35	1	4	1	8	1	id-1318_gender-M_age-35	valence	-0.28261447804558665	3.11088096227013
id-1347_gender-F_age-27	1	4	1	8	2	id-1347_gender-F_age-27	arousal	0.19836339362442196	1.3603777674206867
id-1347_gender-F_age-27	1	4	1	8	2	id-1347_gender-F_age-27	valence	0.19022128329991408	1.3603777674206867
id-1302_gender-F_age-30	1	4	1	8	3	id-1302_gender-F_age-30	arousal	0.2975502056308057	1.5187938899407527
id-1302_gender-F_age-30	1	4	1	8	3	id-1302_gender-F_age-30	valence	0.5842510844211647	1.5187938899407527
id-1360_gender-F_age-20	1	4	1	8	4	id-1360_gender-F_age-20	arousal	0.11004636923517619	3.018996737534508
id-1360_gender-F_age-20	1	4	1	8	4	id-1360_gender-F_age-20	valence	0.17935149568277614	3.018996737534508
id-1291_gender-F_age-24	1	4	1	8	5	id-1291_gender-F_age-24	arousal	0.09510041126161145	1.9355228396734676
id-1291_gender-F_age-24	1	4	1	8	5	id-1291_gender-F_age-24	valence	0.1032629823628105	1.9355228396734676
id-1310_gender-F_age-28	1	4	1	8	6	id-1310_gender-F_age-28	arousal	0.09510041126161145	2.1188409191900064
id-1310_gender-F_age-28	1	4	1	8	6	id-1310_gender-F_age-28	valence	-0.13858979211850886	2.1188409191900064
id-1370_gender-M_age-19	1	4	1	8	7	id-1370_gender-M_age-19	arousal	0.44700978536645253	1.4187791593421937
id-1370_gender-M_age-19	1	4	1	8	7	id-1370_gender-M_age-19	valence	0.8261038589024841	1.4187791593421937
id-1260_gender-F_age-22	1	4	1	8	8	id-1260_gender-F_age-22	arousal	0.11548126304374506	2.627270564882565
id-1260_gender-F_age-22	1	4	1	8	8	id-1260_gender-F_age-22	valence	0.4592485268240783	2.627270564882565
id-1367_gender-M_age-20	1	4	1	8	9	id-1367_gender-M_age-20	arousal	0.16711275422515032	3.1938459300081377
id-1367_gender-M_age-20	1	4	1	8	9	id-1367_gender-M_age-20	valence	0.3831600135041127	3.1938459300081377
id-1380_gender-F_age-21	1	4	1	8	10	id-1380_gender-F_age-21	arousal	0.44429233846216803	1.0856572262036934
id-1380_gender-F_age-21	1	4	1	8	10	id-1380_gender-F_age-21	valence	0.4565310799197938	1.0856572262036934
id-1341_gender-M_age-19	1	4	1	8	11	id-1341_gender-M_age-19	arousal	0.5937519181978148	2.385751828042885
id-1341_gender-M_age-19	1	4	1	8	11	id-1341_gender-M_age-19	valence	0.8179515181896305	2.385751828042885
id-1293_gender-F_age-31	1	4	1	8	12	id-1293_gender-F_age-31	arousal	0.6630468142570692	1.7187804875102302
id-1293_gender-F_age-31	1	4	1	8	12	id-1293_gender-F_age-31	valence	-0.6847966198796908	1.7187804875102302
id-1294_gender-F_age-26	1	4	1	8	13	id-1294_gender-F_age-26	arousal	0.2730931834922453	3.4940926675426454
id-1294_gender-F_age-26	1	4	1	8	13	id-1294_gender-F_age-26	valence	-0.3587029913655523	3.4940926675426454
id-1274_gender-F_age-33	1	4	1	8	14	id-1274_gender-F_age-33	arousal	0.7106021350820477	1.3450353051403001
id-1274_gender-F_age-33	1	4	1	8	14	id-1274_gender-F_age-33	valence	-0.44566129230265583	1.3450353051403001
id-1363_gender-M_age-19	1	4	1	8	15	id-1363_gender-M_age-19	arousal	0.07336083602733556	3.4191688561331834
id-1363_gender-M_age-19	1	4	1	8	15	id-1363_gender-M_age-19	valence	0.1521770266399313	3.4191688561331834
id-1335_gender-M_age-23	1	4	1	8	16	id-1335_gender-M_age-23	arousal	0.6576119204485003	2.4022174985029783
id-1335_gender-M_age-23	1	4	1	8	16	id-1335_gender-M_age-23	valence	0.8614306686581823	2.4022174985029783
id-1264_gender-F_age-26	1	4	1	8	17	id-1264_gender-F_age-26	arousal	0.18069998874657278	1.110374145142487
id-1264_gender-F_age-26	1	4	1	8	17	id-1264_gender-F_age-26	valence	0.38044256659982817	1.110374145142487
id-1361_gender-F_age-19	1	4	1	8	18	id-1361_gender-F_age-19	arousal	0.25814722551868063	1.4522879518190166
id-1361_gender-F_age-19	1	4	1	8	18	id-1361_gender-F_age-19	valence	0.4809881020583541	1.4522879518190166
id-1295_gender-F_age-26	1	4	1	8	19	id-1295_gender-F_age-26	arousal	0.09510041126161145	2.4524307299616344
id-1295_gender-F_age-26	1	4	1	8	19	id-1295_gender-F_age-26	valence	0.1250025575970864	2.4524307299616344
id-1323_gender-F_age-23	1	4	1	8	20	id-1323_gender-F_age-23	arousal	0.15080807279944347	0.9779288536210516
id-1323_gender-F_age-23	1	4	1	8	20	id-1323_gender-F_age-23	valence	-0.15489447354421576	0.9779288536210516
id-1355_gender-F_age-19	1	4	1	8	21	id-1355_gender-F_age-19	arousal	0.25814722551868063	1.0604374142731103
id-1355_gender-F_age-19	1	4	1	8	21	id-1355_gender-F_age-19	valence	-0.3913123542169661	1.0604374142731103
id-1315_gender-M_age-16	1	4	1	8	22	id-1315_gender-M_age-16	arousal	0.6942974536563409	2.2188740630372195
id-1315_gender-M_age-16	1	4	1	8	22	id-1315_gender-M_age-16	valence	-0.4619659737283627	2.2188740630372195
id-1270_gender-F_age-30	1	4	1	8	23	id-1270_gender-F_age-30	arousal	0.7459289448377461	1.285942359890214
id-1270_gender-F_age-30	1	4	1	8	23	id-1270_gender-F_age-30	valence	-0.4864229958669232	1.285942359890214
id-1339_gender-F_age-30	1	4	1	8	24	id-1339_gender-F_age-30	arousal	0.6970149005606253	3.0773794143497066
id-1339_gender-F_age-30	1	4	1	8	24	id-1339_gender-F_age-30	valence	0.0027174469042844872	3.0773794143497066
id-1289_gender-F_age-20	1	4	1	8	25	id-1289_gender-F_age-20	arousal	0.24727743790154272	1.6116449611690769
id-1289_gender-F_age-20	1	4	1	8	25	id-1289_gender-F_age-20	valence	-0.010869787617137949	1.6116449611690769
id-1306_gender-F_age-21	1	4	1	8	26	id-1306_gender-F_age-21	arousal	0.6644055377092115	1.7523366714640358
id-1306_gender-F_age-21	1	4	1	8	26	id-1306_gender-F_age-21	valence	0.40489958873838855	1.7523366714640358
id-1269_gender-F_age-23	1	4	1	8	27	id-1269_gender-F_age-23	arousal	0.7106021350820477	1.0771789816080857
id-1269_gender-F_age-23	1	4	1	8	27	id-1269_gender-F_age-23	valence	-0.4891404427712077	1.0771789816080857
id-1362_gender-F_age-24	1	4	1	8	28	id-1362_gender-F_age-24	arousal	0.6902212832999141	2.226789345188081
id-1362_gender-F_age-24	1	4	1	8	28	id-1362_gender-F_age-24	valence	0.4538136330155093	2.226789345188081
id-1344_gender-M_age-25	1	4	1	8	29	id-1344_gender-M_age-25	arousal	0.17254764803371936	2.15228149208906
id-1344_gender-M_age-25	1	4	1	8	29	id-1344_gender-M_age-25	valence	-0.4701183144412162	2.15228149208906
id-1354_gender-F_age-23	1	4	1	8	30	id-1354_gender-F_age-23	arousal	0.09102424090518474	1.8771649150939995
id-1354_gender-F_age-23	1	4	1	8	30	id-1354_gender-F_age-23	valence	-0.4402263984940868	1.8771649150939995
id-1290_gender-F_age-23	1	4	1	8	31	id-1290_gender-F_age-23	arousal	0.7486463917420305	1.3021970326290102
id-1290_gender-F_age-23	1	4	1	8	31	id-1290_gender-F_age-23	valence	-0.4837055489626387	1.3021970326290102
id-1378_gender-F_age-19	1	4	1	8	32	id-1378_gender-F_age-19	arousal	0.6494595797356468	1.5104668754711383
id-1378_gender-F_age-19	1	4	1	8	32	id-1378_gender-F_age-19	valence	0.7282757703482424	1.5104668754711383
id-1285_gender-F_age-19	1	4	1	8	33	id-1285_gender-F_age-19	arousal	0.12363360375659854	2.8289563129073936
id-1285_gender-F_age-19	1	4	1	8	33	id-1285_gender-F_age-19	valence	0.3940298011212506	2.8289563129073936
id-1358_gender-F_age-32	1	4	1	8	34	id-1358_gender-F_age-32	arousal	0.137220838278021	1.9105161384577516
id-1358_gender-F_age-32	1	4	1	8	34	id-1358_gender-F_age-32	valence	-0.3831600135041127	1.9105161384577516
id-1280_gender-M_age-18	1	4	1	8	35	id-1280_gender-M_age-18	arousal	0.17118892458157708	0.903745798156706
id-1280_gender-M_age-18	1	4	1	8	35	id-1280_gender-M_age-18	valence	0.4972927834840611	0.903745798156706
id-1309_gender-M_age-22	1	4	1	8	36	id-1309_gender-M_age-22	arousal	0.11548126304374506	1.3437656965397764
id-1309_gender-M_age-22	1	4	1	8	36	id-1309_gender-M_age-22	valence	0.50272767729263	1.3437656965397764
id-1279_gender-F_age-19	1	4	1	8	37	id-1279_gender-F_age-19	arousal	0.6222851106928019	1.653050320692273
id-1279_gender-F_age-19	1	4	1	8	37	id-1279_gender-F_age-19	valence	0.6358825756025699	1.653050320692273
id-1366_gender-F_age-24	1	4	1	8	38	id-1366_gender-F_age-24	arousal	0.6657642611613537	1.3272152043928145
id-1366_gender-F_age-24	1	4	1	8	38	id-1366_gender-F_age-24	valence	0.2608749028113107	1.3272152043928145
id-1296_gender-F_age-23	1	4	1	8	39	id-1296_gender-F_age-23	arousal	0.22825530957155132	1.4188748478636626
id-1296_gender-F_age-23	1	4	1	8	39	id-1296_gender-F_age-23	valence	0.3097889470884315	1.4188748478636626
id-1311_gender-F_age-22	1	4	1	8	40	id-1311_gender-F_age-22	arousal	0.5883170243892458	1.4938261282186431
id-1311_gender-F_age-22	1	4	1	8	40	id-1311_gender-F_age-22	valence	0.5407719339526129	1.4938261282186431
id-1345_gender-M_age-18	1	4	1	8	41	id-1345_gender-M_age-18	arousal	0.21330935159798664	2.3689091387677763
id-1345_gender-M_age-18	1	4	1	8	41	id-1345_gender-M_age-18	valence	0.5706638498997423	2.3689091387677763
id-1342_gender-M_age-19	1	4	1	8	42	id-1342_gender-M_age-19	arousal	0.25814722551868063	2.3188866806403894
id-1342_gender-M_age-19	1	4	1	8	42	id-1342_gender-M_age-19	valence	0.5217498056226214	2.3188866806403894
id-1273_gender-F_age-20	1	4	1	8	43	id-1273_gender-F_age-20	arousal	0.7106021350820477	1.5438760552906388
id-1273_gender-F_age-20	1	4	1	8	43	id-1273_gender-F_age-20	valence	0.6277302348897165	1.5438760552906388
id-1266_gender-M_age-21	1	4	1	8	44	id-1266_gender-M_age-21	arousal	0.6141327699799485	0.9520165827907476
id-1266_gender-M_age-21	1	4	1	8	44	id-1266_gender-M_age-21	valence	0.10869787617137948	0.9520165827907476
id-1297_gender-F_age-22	1	4	1	8	45	id-1297_gender-F_age-22	arousal	0.23097275647583576	1.1604832360953878
id-1297_gender-F_age-22	1	4	1	8	45	id-1297_gender-F_age-22	valence	0.30707150018414703	1.1604832360953878
id-1376_gender-F_age-19	1	4	1	8	46	id-1376_gender-F_age-19	arousal	0.11140509268731835	1.6271760837853435
id-1376_gender-F_age-19	1	4	1	8	46	id-1376_gender-F_age-19	valence	-0.07337106641568114	1.6271760837853435
id-1356_gender-F_age-20	1	4	1	8	47	id-1356_gender-F_age-20	arousal	0.10732892233089164	2.9023119795992898
id-1356_gender-F_age-20	1	4	1	8	47	id-1356_gender-F_age-20	valence	0.4320740577812335	2.9023119795992898
id-1373_gender-F_age-30	1	4	1	8	48	id-1373_gender-F_age-30	arousal	0.07064338912305107	1.8854756293103487
id-1373_gender-F_age-30	1	4	1	8	48	id-1373_gender-F_age-30	valence	-0.00815234071285346	1.8854756293103487
id-1307_gender-F_age-22	1	4	1	8	49	id-1307_gender-F_age-22	arousal	0.12770977411302525	1.3520329434149971
id-1307_gender-F_age-22	1	4	1	8	49	id-1307_gender-F_age-22	valence	0.5625115091868887	1.3520329434149971
id-1377_gender-M_age-20	1	4	1	8	50	id-1377_gender-M_age-20	arousal	0.4062480818021852	1.018739857620858
id-1377_gender-M_age-20	1	4	1	8	50	id-1377_gender-M_age-20	valence	0.8858876907967428	1.018739857620858
id-1356_gender-F_age-20	2	4	2	4	1	id-1356_gender-F_age-20	trustworthiness	0.4850000000000001	1.9680000000000002
id-1378_gender-F_age-19	2	4	2	4	2	id-1378_gender-F_age-19	trustworthiness	0.635	1.568
id-1290_gender-F_age-23	2	4	2	4	3	id-1290_gender-F_age-23	trustworthiness	-0.475	1.301
id-1335_gender-M_age-23	2	4	2	4	4	id-1335_gender-M_age-23	trustworthiness	0.5249999999999999	1.2429999999999999
id-1323_gender-F_age-23	2	4	2	4	5	id-1323_gender-F_age-23	trustworthiness	-0.18000000000000005	0.909
id-1347_gender-F_age-27	2	4	2	4	6	id-1347_gender-F_age-27	trustworthiness	0.33000000000000007	2.068
id-1360_gender-F_age-20	2	4	2	4	7	id-1360_gender-F_age-20	trustworthiness	-0.1825	1.318
id-1376_gender-F_age-19	2	4	2	4	8	id-1376_gender-F_age-19	trustworthiness	0.5025	1.493
id-1260_gender-F_age-22	2	4	2	4	9	id-1260_gender-F_age-22	trustworthiness	0.26	1.518
id-1315_gender-M_age-16	2	4	2	4	10	id-1315_gender-M_age-16	trustworthiness	-0.27	0.785
id-1310_gender-F_age-28	2	4	2	4	11	id-1310_gender-F_age-28	trustworthiness	-0.4175	2.068
id-1273_gender-F_age-20	2	4	2	4	12	id-1273_gender-F_age-20	trustworthiness	0.5025	1.176
id-1345_gender-M_age-18	2	4	2	4	13	id-1345_gender-M_age-18	trustworthiness	0.2925	1.226
id-1355_gender-F_age-19	2	4	2	4	14	id-1355_gender-F_age-19	trustworthiness	0.3374999999999999	1.251
id-1295_gender-F_age-26	2	4	2	4	15	id-1295_gender-F_age-26	trustworthiness	0.1299999999999999	1.093
id-1280_gender-M_age-18	2	4	2	4	16	id-1280_gender-M_age-18	trustworthiness	-0.18000000000000005	1.109
id-1344_gender-M_age-25	2	4	2	4	17	id-1344_gender-M_age-25	trustworthiness	0.2250000000000001	1.601
id-1296_gender-F_age-23	2	4	2	4	18	id-1296_gender-F_age-23	trustworthiness	0.3174999999999999	1.426
id-1373_gender-F_age-30	2	4	2	4	19	id-1373_gender-F_age-30	trustworthiness	0.32000000000000006	1.801
id-1318_gender-M_age-35	2	4	2	4	20	id-1318_gender-M_age-35	trustworthiness	-0.36250000000000004	1.6680000000000001
id-1367_gender-M_age-20	2	4	2	4	21	id-1367_gender-M_age-20	trustworthiness	0.13250000000000006	1.0090000000000001
id-1285_gender-F_age-19	2	4	2	4	22	id-1285_gender-F_age-19	trustworthiness	0.18500000000000005	1.159
id-1366_gender-F_age-24	2	4	2	4	23	id-1366_gender-F_age-24	trustworthiness	0.2875000000000001	1.159
id-1354_gender-F_age-23	2	4	2	4	24	id-1354_gender-F_age-23	trustworthiness	-0.3425	1.31
id-1293_gender-F_age-31	2	4	2	4	25	id-1293_gender-F_age-31	trustworthiness	-0.2775000000000001	1.8259999999999998
id-1302_gender-F_age-30	2	4	2	4	26	id-1302_gender-F_age-30	trustworthiness	0.37250000000000005	1.618
id-1362_gender-F_age-24	2	4	2	4	27	id-1362_gender-F_age-24	trustworthiness	0.47	1.368
id-1279_gender-F_age-19	2	4	2	4	28	id-1279_gender-F_age-19	trustworthiness	0.625	1.31
id-1270_gender-F_age-30	2	4	2	4	29	id-1270_gender-F_age-30	trustworthiness	-0.2825	2.185
id-1342_gender-M_age-19	2	4	2	4	30	id-1342_gender-M_age-19	trustworthiness	-0.30500000000000005	1.043
id-1311_gender-F_age-22	2	4	2	4	31	id-1311_gender-F_age-22	trustworthiness	0.37749999999999995	1.218
id-1380_gender-F_age-21	2	4	2	4	32	id-1380_gender-F_age-21	trustworthiness	0.4624999999999999	1.068
id-1377_gender-M_age-20	2	4	2	4	33	id-1377_gender-M_age-20	trustworthiness	0.5550000000000002	1.251
id-1358_gender-F_age-32	2	4	2	4	34	id-1358_gender-F_age-32	trustworthiness	0.22750000000000004	1.351
id-1266_gender-M_age-21	2	4	2	4	35	id-1266_gender-M_age-21	trustworthiness	-0.38749999999999996	1.726
id-1309_gender-M_age-22	2	4	2	4	36	id-1309_gender-M_age-22	trustworthiness	-0.28	1.6840000000000002
id-1306_gender-F_age-21	2	4	2	4	37	id-1306_gender-F_age-21	trustworthiness	0.03499999999999992	1.026
id-1361_gender-F_age-19	2	4	2	4	38	id-1361_gender-F_age-19	trustworthiness	0.14500000000000002	1.101
id-1264_gender-F_age-26	2	4	2	4	39	id-1264_gender-F_age-26	trustworthiness	-0.345	1.31
id-1297_gender-F_age-22	2	4	2	4	40	id-1297_gender-F_age-22	trustworthiness	-0.41500000000000004	1.2930000000000001
id-1274_gender-F_age-33	2	4	2	4	41	id-1274_gender-F_age-33	trustworthiness	-0.565	1.585
id-1370_gender-M_age-19	2	4	2	4	42	id-1370_gender-M_age-19	trustworthiness	0.5874999999999999	1.109
id-1339_gender-F_age-30	2	4	2	4	43	id-1339_gender-F_age-30	trustworthiness	0.27	1.351
id-1289_gender-F_age-20	2	4	2	4	44	id-1289_gender-F_age-20	trustworthiness	0.1875	0.851
id-1307_gender-F_age-22	2	4	2	4	45	id-1307_gender-F_age-22	trustworthiness	0.395	1.276
id-1341_gender-M_age-19	2	4	2	4	46	id-1341_gender-M_age-19	trustworthiness	-0.35750000000000004	1.86
id-1294_gender-F_age-26	2	4	2	4	47	id-1294_gender-F_age-26	trustworthiness	-0.31499999999999995	1.2930000000000001
id-1269_gender-F_age-23	2	4	2	4	48	id-1269_gender-F_age-23	trustworthiness	-0.20999999999999996	1.11
id-1291_gender-F_age-24	2	4	2	4	49	id-1291_gender-F_age-24	trustworthiness	0.1399999999999999	1.043
id-1363_gender-M_age-19	2	4	2	4	50	id-1363_gender-M_age-19	trustworthiness	0.27	1.385
id-1360_gender-F_age-20	2	4	2	5	1	id-1360_gender-F_age-20	dominance	-0.43500000000000005	1.685
id-1335_gender-M_age-23	2	4	2	5	2	id-1335_gender-M_age-23	dominance	0.3174999999999999	1.4269999999999998
id-1347_gender-F_age-27	2	4	2	5	3	id-1347_gender-F_age-27	dominance	-0.49	1.851
id-1366_gender-F_age-24	2	4	2	5	4	id-1366_gender-F_age-24	dominance	0.4750000000000001	1.226
id-1297_gender-F_age-22	2	4	2	5	5	id-1297_gender-F_age-22	dominance	0.6575	1.018
id-1373_gender-F_age-30	2	4	2	5	6	id-1373_gender-F_age-30	dominance	-0.2925	1.7180000000000002
id-1354_gender-F_age-23	2	4	2	5	7	id-1354_gender-F_age-23	dominance	-0.5525	1.0590000000000002
id-1307_gender-F_age-22	2	4	2	5	8	id-1307_gender-F_age-22	dominance	-0.765	1.926
id-1260_gender-F_age-22	2	4	2	5	9	id-1260_gender-F_age-22	dominance	-0.565	1.459
id-1291_gender-F_age-24	2	4	2	5	10	id-1291_gender-F_age-24	dominance	0.36749999999999994	2.8930000000000002
id-1310_gender-F_age-28	2	4	2	5	11	id-1310_gender-F_age-28	dominance	0.28	1.185
id-1279_gender-F_age-19	2	4	2	5	12	id-1279_gender-F_age-19	dominance	-0.7275	1.176
id-1342_gender-M_age-19	2	4	2	5	13	id-1342_gender-M_age-19	dominance	0.4624999999999999	1.334
id-1273_gender-F_age-20	2	4	2	5	14	id-1273_gender-F_age-20	dominance	-0.25	0.976
id-1264_gender-F_age-26	2	4	2	5	15	id-1264_gender-F_age-26	dominance	-0.5725	1.376
id-1295_gender-F_age-26	2	4	2	5	16	id-1295_gender-F_age-26	dominance	0.20750000000000002	1.693
id-1376_gender-F_age-19	2	4	2	5	17	id-1376_gender-F_age-19	dominance	-0.38	1.21
id-1289_gender-F_age-20	2	4	2	5	18	id-1289_gender-F_age-20	dominance	-0.6275	1.601
id-1294_gender-F_age-26	2	4	2	5	19	id-1294_gender-F_age-26	dominance	-0.4575	1.5930000000000002
id-1315_gender-M_age-16	2	4	2	5	20	id-1315_gender-M_age-16	dominance	0.5150000000000001	1.776
id-1296_gender-F_age-23	2	4	2	5	21	id-1296_gender-F_age-23	dominance	-0.26249999999999996	1.443
id-1370_gender-M_age-19	2	4	2	5	22	id-1370_gender-M_age-19	dominance	-0.5325	1.268
id-1269_gender-F_age-23	2	4	2	5	23	id-1269_gender-F_age-23	dominance	0.3999999999999999	0.951
id-1309_gender-M_age-22	2	4	2	5	24	id-1309_gender-M_age-22	dominance	-0.2875	0.935
id-1363_gender-M_age-19	2	4	2	5	25	id-1363_gender-M_age-19	dominance	-0.5525	1.268
id-1285_gender-F_age-19	2	4	2	5	26	id-1285_gender-F_age-19	dominance	0.21500000000000008	1.5519999999999998
id-1318_gender-M_age-35	2	4	2	5	27	id-1318_gender-M_age-35	dominance	0.6975	1.185
id-1306_gender-F_age-21	2	4	2	5	28	id-1306_gender-F_age-21	dominance	-0.4175	0.9840000000000001
id-1358_gender-F_age-32	2	4	2	5	29	id-1358_gender-F_age-32	dominance	-0.35	3.818
id-1274_gender-F_age-33	2	4	2	5	30	id-1274_gender-F_age-33	dominance	-0.565	1.776
id-1380_gender-F_age-21	2	4	2	5	31	id-1380_gender-F_age-21	dominance	-0.6275	1.426
id-1323_gender-F_age-23	2	4	2	5	32	id-1323_gender-F_age-23	dominance	-0.4375	2.509
id-1344_gender-M_age-25	2	4	2	5	33	id-1344_gender-M_age-25	dominance	-0.2975	1.96
id-1266_gender-M_age-21	2	4	2	5	34	id-1266_gender-M_age-21	dominance	0.27249999999999996	1.051
id-1367_gender-M_age-20	2	4	2	5	35	id-1367_gender-M_age-20	dominance	0.565	1.993
id-1355_gender-F_age-19	2	4	2	5	36	id-1355_gender-F_age-19	dominance	-0.4475	0.851
id-1311_gender-F_age-22	2	4	2	5	37	id-1311_gender-F_age-22	dominance	-0.5875	0.9590000000000001
id-1361_gender-F_age-19	2	4	2	5	38	id-1361_gender-F_age-19	dominance	-0.5775	1.168
id-1362_gender-F_age-24	2	4	2	5	39	id-1362_gender-F_age-24	dominance	-0.6475	0.968
id-1341_gender-M_age-19	2	4	2	5	40	id-1341_gender-M_age-19	dominance	-0.4475	1.493
id-1302_gender-F_age-30	2	4	2	5	41	id-1302_gender-F_age-30	dominance	-0.2975	0.693
id-1356_gender-F_age-20	2	4	2	5	42	id-1356_gender-F_age-20	dominance	-0.09999999999999998	0.759
id-1293_gender-F_age-31	2	4	2	5	43	id-1293_gender-F_age-31	dominance	0.39250000000000007	1.5759999999999998
id-1377_gender-M_age-20	2	4	2	5	44	id-1377_gender-M_age-20	dominance	-0.22999999999999998	1.218
id-1270_gender-F_age-30	2	4	2	5	45	id-1270_gender-F_age-30	dominance	0.405	1.251
id-1378_gender-F_age-19	2	4	2	5	46	id-1378_gender-F_age-19	dominance	-0.565	0.9840000000000001
id-1339_gender-F_age-30	2	4	2	5	47	id-1339_gender-F_age-30	dominance	-0.4724999999999999	1.585
id-1280_gender-M_age-18	2	4	2	5	48	id-1280_gender-M_age-18	dominance	-0.5275000000000001	2.46
id-1345_gender-M_age-18	2	4	2	5	49	id-1345_gender-M_age-18	dominance	-0.4675	2.135
id-1290_gender-F_age-23	2	4	2	5	50	id-1290_gender-F_age-23	dominance	0.54	1.226
id-1291_gender-F_age-24	2	4	2	6	1	id-1291_gender-F_age-24	attractiveness	-0.49249999999999994	2.451
id-1293_gender-F_age-31	2	4	2	6	2	id-1293_gender-F_age-31	attractiveness	-0.7625	1.001
id-1296_gender-F_age-23	2	4	2	6	3	id-1296_gender-F_age-23	attractiveness	-0.37250000000000005	1.051
id-1356_gender-F_age-20	2	4	2	6	4	id-1356_gender-F_age-20	attractiveness	-0.125	0.45899999999999996
id-1345_gender-M_age-18	2	4	2	6	5	id-1345_gender-M_age-18	attractiveness	0.4175	1.001
id-1354_gender-F_age-23	2	4	2	6	6	id-1354_gender-F_age-23	attractiveness	-0.4575	1.0759999999999998
id-1260_gender-F_age-22	2	4	2	6	7	id-1260_gender-F_age-22	attractiveness	-0.4225	0.943
id-1373_gender-F_age-30	2	4	2	6	8	id-1373_gender-F_age-30	attractiveness	-0.6725	1.251
id-1269_gender-F_age-23	2	4	2	6	9	id-1269_gender-F_age-23	attractiveness	-0.7025	1.001
id-1307_gender-F_age-22	2	4	2	6	10	id-1307_gender-F_age-22	attractiveness	-0.3400000000000001	0.86
id-1280_gender-M_age-18	2	4	2	6	11	id-1280_gender-M_age-18	attractiveness	-0.48249999999999993	1.276
id-1376_gender-F_age-19	2	4	2	6	12	id-1376_gender-F_age-19	attractiveness	-0.27249999999999996	0.993
id-1309_gender-M_age-22	2	4	2	6	13	id-1309_gender-M_age-22	attractiveness	-0.5125	1.443
id-1270_gender-F_age-30	2	4	2	6	14	id-1270_gender-F_age-30	attractiveness	0.09749999999999992	1.518
id-1370_gender-M_age-19	2	4	2	6	15	id-1370_gender-M_age-19	attractiveness	0.53	1.335
id-1294_gender-F_age-26	2	4	2	6	16	id-1294_gender-F_age-26	attractiveness	-0.4175	1.135
id-1310_gender-F_age-28	2	4	2	6	17	id-1310_gender-F_age-28	attractiveness	-0.07999999999999996	2.9760000000000004
id-1323_gender-F_age-23	2	4	2	6	18	id-1323_gender-F_age-23	attractiveness	-0.4125	1.4680000000000002
id-1274_gender-F_age-33	2	4	2	6	19	id-1274_gender-F_age-33	attractiveness	-0.4650000000000001	1.335
id-1335_gender-M_age-23	2	4	2	6	20	id-1335_gender-M_age-23	attractiveness	0.38749999999999996	1.151
id-1358_gender-F_age-32	2	4	2	6	21	id-1358_gender-F_age-32	attractiveness	-0.51	1.31
id-1366_gender-F_age-24	2	4	2	6	22	id-1366_gender-F_age-24	attractiveness	-0.39249999999999996	1.393
id-1341_gender-M_age-19	2	4	2	6	23	id-1341_gender-M_age-19	attractiveness	0.31499999999999995	1.359
id-1362_gender-F_age-24	2	4	2	6	24	id-1362_gender-F_age-24	attractiveness	0.18999999999999995	1.1179999999999999
id-1342_gender-M_age-19	2	4	2	6	25	id-1342_gender-M_age-19	attractiveness	0.14250000000000007	1.443
id-1279_gender-F_age-19	2	4	2	6	26	id-1279_gender-F_age-19	attractiveness	-0.3225	1.151
id-1315_gender-M_age-16	2	4	2	6	27	id-1315_gender-M_age-16	attractiveness	-0.07999999999999996	1.359
id-1360_gender-F_age-20	2	4	2	6	28	id-1360_gender-F_age-20	attractiveness	-0.4175	1.01
id-1306_gender-F_age-21	2	4	2	6	29	id-1306_gender-F_age-21	attractiveness	-0.42500000000000004	3.585
id-1290_gender-F_age-23	2	4	2	6	30	id-1290_gender-F_age-23	attractiveness	-0.44499999999999995	2.7680000000000002
id-1297_gender-F_age-22	2	4	2	6	31	id-1297_gender-F_age-22	attractiveness	-0.45500000000000007	2.469
id-1363_gender-M_age-19	2	4	2	6	32	id-1363_gender-M_age-19	attractiveness	-0.49750000000000005	0.976
id-1295_gender-F_age-26	2	4	2	6	33	id-1295_gender-F_age-26	attractiveness	-0.4525	2.085
id-1302_gender-F_age-30	2	4	2	6	34	id-1302_gender-F_age-30	attractiveness	-0.35750000000000004	1.526
id-1264_gender-F_age-26	2	4	2	6	35	id-1264_gender-F_age-26	attractiveness	-0.7275	1.46
id-1318_gender-M_age-35	2	4	2	6	36	id-1318_gender-M_age-35	attractiveness	-0.2975	0.976
id-1367_gender-M_age-20	2	4	2	6	37	id-1367_gender-M_age-20	attractiveness	0.6575	0.7929999999999999
id-1355_gender-F_age-19	2	4	2	6	38	id-1355_gender-F_age-19	attractiveness	-0.4225	1.051
id-1344_gender-M_age-25	2	4	2	6	39	id-1344_gender-M_age-25	attractiveness	-0.43999999999999995	1.068
id-1339_gender-F_age-30	2	4	2	6	40	id-1339_gender-F_age-30	attractiveness	-0.11750000000000005	0.501
id-1311_gender-F_age-22	2	4	2	6	41	id-1311_gender-F_age-22	attractiveness	-0.25249999999999995	1.06
id-1377_gender-M_age-20	2	4	2	6	42	id-1377_gender-M_age-20	attractiveness	0.30499999999999994	1.1179999999999999
id-1380_gender-F_age-21	2	4	2	6	43	id-1380_gender-F_age-21	attractiveness	-0.3175	1.285
id-1266_gender-M_age-21	2	4	2	6	44	id-1266_gender-M_age-21	attractiveness	0.1825000000000001	1.001
id-1347_gender-F_age-27	2	4	2	6	45	id-1347_gender-F_age-27	attractiveness	-0.56	0.818
id-1361_gender-F_age-19	2	4	2	6	46	id-1361_gender-F_age-19	attractiveness	-0.4625	1.985
id-1378_gender-F_age-19	2	4	2	6	47	id-1378_gender-F_age-19	attractiveness	0.51	1.5759999999999998
id-1289_gender-F_age-20	2	4	2	6	48	id-1289_gender-F_age-20	attractiveness	-0.365	1.21
id-1273_gender-F_age-20	2	4	2	6	49	id-1273_gender-F_age-20	attractiveness	0.385	0.9259999999999999
id-1285_gender-F_age-19	2	4	2	6	50	id-1285_gender-F_age-19	attractiveness	-0.48750000000000004	1.334
id-1309_gender-M_age-22	2	4	2	7	1	id-1309_gender-M_age-22	arousal	0.12091615685231405	1.893852148252336
id-1309_gender-M_age-22	2	4	2	7	1	id-1309_gender-M_age-22	valence	0.40761703564267293	1.893852148252336
id-1310_gender-F_age-28	2	4	2	7	2	id-1310_gender-F_age-28	arousal	0.32880084503007734	1.0028338291822363
id-1310_gender-F_age-28	2	4	2	7	2	id-1310_gender-F_age-28	valence	0.17935149568277614	1.0028338291822363
id-1295_gender-F_age-26	2	4	2	7	3	id-1295_gender-F_age-26	arousal	0.19292849981585297	1.3020684417433586
id-1295_gender-F_age-26	2	4	2	7	3	id-1295_gender-F_age-26	valence	-0.14945957973564675	1.3020684417433586
id-1280_gender-M_age-18	2	4	2	7	4	id-1280_gender-M_age-18	arousal	0.18613488255514177	0.9269621882422144
id-1280_gender-M_age-18	2	4	2	7	4	id-1280_gender-M_age-18	valence	0.2608749028113107	0.9269621882422144
id-1296_gender-F_age-23	2	4	2	7	5	id-1296_gender-F_age-23	arousal	0.16439530732086588	1.9523175337590144
id-1296_gender-F_age-23	2	4	2	7	5	id-1296_gender-F_age-23	valence	0.16032936735278475	1.9523175337590144
id-1266_gender-M_age-21	2	4	2	7	6	id-1266_gender-M_age-21	arousal	0.717395752342759	1.1519977469424705
id-1266_gender-M_age-21	2	4	2	7	6	id-1266_gender-M_age-21	valence	0.5108800180054835	1.1519977469424705
id-1358_gender-F_age-32	2	4	2	7	7	id-1358_gender-F_age-32	arousal	0.22010296885869785	1.1939443352393937
id-1358_gender-F_age-32	2	4	2	7	7	id-1358_gender-F_age-32	valence	0.5000102303883456	1.1939443352393937
id-1289_gender-F_age-20	2	4	2	7	8	id-1289_gender-F_age-20	arousal	0.19972211707656423	0.9769408771708186
id-1289_gender-F_age-20	2	4	2	7	8	id-1289_gender-F_age-20	valence	0.4293566108769489	0.9769408771708186
id-1363_gender-M_age-19	2	4	2	7	9	id-1363_gender-M_age-19	arousal	0.17118892458157708	2.0605270656642456
id-1363_gender-M_age-19	2	4	2	7	9	id-1363_gender-M_age-19	valence	0.5299021463354749	2.0605270656642456
id-1377_gender-M_age-20	2	4	2	7	10	id-1377_gender-M_age-20	arousal	0.6059804292670949	1.4770821460306252
id-1377_gender-M_age-20	2	4	2	7	10	id-1377_gender-M_age-20	valence	0.6983838544011131	1.4770821460306252
id-1378_gender-F_age-19	2	4	2	7	11	id-1378_gender-F_age-19	arousal	0.7635923497155952	1.1436550359330795
id-1378_gender-F_age-19	2	4	2	7	11	id-1378_gender-F_age-19	valence	0.6331651286982856	1.1436550359330795
id-1297_gender-F_age-22	2	4	2	7	12	id-1297_gender-F_age-22	arousal	0.23776637373654702	2.377040248343292
id-1297_gender-F_age-22	2	4	2	7	12	id-1297_gender-F_age-22	valence	-0.4103344825469576	2.377040248343292
id-1370_gender-M_age-19	2	4	2	7	13	id-1370_gender-M_age-19	arousal	0.3029850994393747	0.8186666272240473
id-1370_gender-M_age-19	2	4	2	7	13	id-1370_gender-M_age-19	valence	0.7500153455825184	0.8186666272240473
id-1318_gender-M_age-35	2	4	2	7	14	id-1318_gender-M_age-35	arousal	0.4850540420264353	1.1770485192128035
id-1318_gender-M_age-35	2	4	2	7	14	id-1318_gender-M_age-35	valence	-0.42120427016409545	1.1770485192128035
id-1355_gender-F_age-19	2	4	2	7	15	id-1355_gender-F_age-19	arousal	0.07064338912305107	1.2438219022269552
id-1355_gender-F_age-19	2	4	2	7	15	id-1355_gender-F_age-19	valence	-0.11956766378851742	1.2438219022269552
id-1366_gender-F_age-24	2	4	2	7	16	id-1366_gender-F_age-24	arousal	0.16575403077300815	0.901924999516268
id-1366_gender-F_age-24	2	4	2	7	16	id-1366_gender-F_age-24	valence	0.4266391639726645	0.901924999516268
id-1354_gender-F_age-23	2	4	2	7	17	id-1354_gender-F_age-23	arousal	0.11955743340017183	1.3270630686974982
id-1354_gender-F_age-23	2	4	2	7	17	id-1354_gender-F_age-23	valence	0.14674213283136228	1.3270630686974982
id-1264_gender-F_age-26	2	4	2	7	18	id-1264_gender-F_age-26	arousal	0.10868764578303386	1.0690348922007615
id-1264_gender-F_age-26	2	4	2	7	18	id-1264_gender-F_age-26	valence	0.3451157568441299	1.0690348922007615
id-1360_gender-F_age-20	2	4	2	7	19	id-1360_gender-F_age-20	arousal	0.2649408427793919	1.3604031233699059
id-1360_gender-F_age-20	2	4	2	7	19	id-1360_gender-F_age-20	valence	-0.23098298686418134	1.3604031233699059
id-1285_gender-F_age-19	2	4	2	7	20	id-1285_gender-F_age-19	arousal	0.12363360375659854	1.6853652705594868
id-1285_gender-F_age-19	2	4	2	7	20	id-1285_gender-F_age-19	valence	0.09511064164995704	1.6853652705594868
id-1323_gender-F_age-23	2	4	2	7	21	id-1323_gender-F_age-23	arousal	0.12091615685231405	1.1687643683717397
id-1323_gender-F_age-23	2	4	2	7	21	id-1323_gender-F_age-23	valence	0.4755532082497852	1.1687643683717397
id-1347_gender-F_age-27	2	4	2	7	22	id-1347_gender-F_age-27	arousal	0.44700978536645253	2.752149822266801
id-1347_gender-F_age-27	2	4	2	7	22	id-1347_gender-F_age-27	valence	0.7038187482096819	2.752149822266801
id-1291_gender-F_age-24	2	4	2	7	23	id-1291_gender-F_age-24	arousal	0.6195676637885175	1.0269627315847174
id-1291_gender-F_age-24	2	4	2	7	23	id-1291_gender-F_age-24	valence	0.6114255534640095	1.0269627315847174
id-1380_gender-F_age-21	2	4	2	7	24	id-1380_gender-F_age-21	arousal	0.3070612697958014	1.1019112952308203
id-1380_gender-F_age-21	2	4	2	7	24	id-1380_gender-F_age-21	valence	0.4864229958669232	1.1019112952308203
id-1356_gender-F_age-20	2	4	2	7	25	id-1356_gender-F_age-20	arousal	0.14809062589515903	0.7102403623239297
id-1356_gender-F_age-20	2	4	2	7	25	id-1356_gender-F_age-20	valence	0.3043540532798626	0.7102403623239297
id-1290_gender-F_age-23	2	4	2	7	26	id-1290_gender-F_age-23	arousal	0.14265573208658994	0.8936538285070128
id-1290_gender-F_age-23	2	4	2	7	26	id-1290_gender-F_age-23	valence	-0.2364178806727504	0.8936538285070128
id-1269_gender-F_age-23	2	4	2	7	27	id-1269_gender-F_age-23	arousal	0.1521667962515857	3.4191133145295685
id-1269_gender-F_age-23	2	4	2	7	27	id-1269_gender-F_age-23	valence	-0.30163660637557804	3.4191133145295685
id-1362_gender-F_age-24	2	4	2	7	28	id-1362_gender-F_age-24	arousal	0.11683998649588734	1.727443468306774
id-1362_gender-F_age-24	2	4	2	7	28	id-1362_gender-F_age-24	valence	0.3858774604083972	1.727443468306774
id-1344_gender-M_age-25	2	4	2	7	29	id-1344_gender-M_age-25	arousal	0.16167786041658133	3.860736674844702
id-1344_gender-M_age-25	2	4	2	7	29	id-1344_gender-M_age-25	valence	-0.3885949073126817	3.860736674844702
id-1367_gender-M_age-20	2	4	2	7	30	id-1367_gender-M_age-20	arousal	0.10868764578303386	1.6352601037424392
id-1367_gender-M_age-20	2	4	2	7	30	id-1367_gender-M_age-20	valence	-0.418486823259811	1.6352601037424392
id-1311_gender-F_age-22	2	4	2	7	31	id-1311_gender-F_age-22	arousal	0.3777148893071981	0.9434686093345591
id-1311_gender-F_age-22	2	4	2	7	31	id-1311_gender-F_age-22	valence	0.625012787985432	0.9434686093345591
id-1376_gender-F_age-19	2	4	2	7	32	id-1376_gender-F_age-19	arousal	0.12227488030445632	0.9269283803096188
id-1376_gender-F_age-19	2	4	2	7	32	id-1376_gender-F_age-19	valence	0.17935149568277614	0.9269283803096188
id-1273_gender-F_age-20	2	4	2	7	33	id-1273_gender-F_age-20	arousal	0.6114153230756639	1.2105654618162591
id-1273_gender-F_age-20	2	4	2	7	33	id-1273_gender-F_age-20	valence	0.7500153455825184	1.2105654618162591
id-1270_gender-F_age-30	2	4	2	7	34	id-1270_gender-F_age-30	arousal	0.21195062814584442	1.4435682219927912
id-1270_gender-F_age-30	2	4	2	7	34	id-1270_gender-F_age-30	valence	0.4945753365797766	1.4435682219927912
id-1339_gender-F_age-30	2	4	2	7	35	id-1339_gender-F_age-30	arousal	0.13178594446945208	1.218645255780757
id-1339_gender-F_age-30	2	4	2	7	35	id-1339_gender-F_age-30	valence	0.15761192044850025	1.218645255780757
id-1373_gender-F_age-30	2	4	2	7	36	id-1373_gender-F_age-30	arousal	0.137220838278021	2.0353434765174825
id-1373_gender-F_age-30	2	4	2	7	36	id-1373_gender-F_age-30	valence	0.3206587347055695	2.0353434765174825
id-1335_gender-M_age-23	2	4	2	7	37	id-1335_gender-M_age-23	arousal	0.7038085178213365	1.227002154048023
id-1335_gender-M_age-23	2	4	2	7	37	id-1335_gender-M_age-23	valence	0.6222953410811475	1.227002154048023
id-1361_gender-F_age-19	2	4	2	7	38	id-1361_gender-F_age-19	arousal	0.10461147542660715	1.2769838615422486
id-1361_gender-F_age-19	2	4	2	7	38	id-1361_gender-F_age-19	valence	0.33968086303556083	1.2769838615422486
id-1345_gender-M_age-18	2	4	2	7	39	id-1345_gender-M_age-18	arousal	0.1304272210173098	1.9187390124216108
id-1345_gender-M_age-18	2	4	2	7	39	id-1345_gender-M_age-18	valence	0.3831600135041127	1.9187390124216108
id-1315_gender-M_age-16	2	4	2	7	40	id-1315_gender-M_age-16	arousal	0.35189914371649544	1.3438136917302472
id-1315_gender-M_age-16	2	4	2	7	40	id-1315_gender-M_age-16	valence	0.6603395977411303	1.3438136917302472
id-1279_gender-F_age-19	2	4	2	7	41	id-1279_gender-F_age-19	arousal	0.23097275647583576	1.5271245266894766
id-1279_gender-F_age-19	2	4	2	7	41	id-1279_gender-F_age-19	valence	0.7500153455825184	1.5271245266894766
id-1306_gender-F_age-21	2	4	2	7	42	id-1306_gender-F_age-21	arousal	0.15760169006015462	3.5524140674806404
id-1306_gender-F_age-21	2	4	2	7	42	id-1306_gender-F_age-21	valence	0.2418527744813193	3.5524140674806404
id-1293_gender-F_age-31	2	4	2	7	43	id-1293_gender-F_age-31	arousal	0.12770977411302525	1.8521564027387285
id-1293_gender-F_age-31	2	4	2	7	43	id-1293_gender-F_age-31	valence	-0.2907668187584401	1.8521564027387285
id-1274_gender-F_age-33	2	4	2	7	44	id-1274_gender-F_age-33	arousal	0.7296242634120391	0.8603303759437041
id-1274_gender-F_age-33	2	4	2	7	44	id-1274_gender-F_age-33	valence	-0.5842510844211647	0.8603303759437041
id-1307_gender-F_age-22	2	4	2	7	45	id-1307_gender-F_age-22	arousal	0.1358621148258788	0.9279492591231246
id-1307_gender-F_age-22	2	4	2	7	45	id-1307_gender-F_age-22	valence	-0.32337618160985393	0.9279492591231246
id-1341_gender-M_age-19	2	4	2	7	46	id-1341_gender-M_age-19	arousal	0.2391250971886893	1.377029985220361
id-1341_gender-M_age-19	2	4	2	7	46	id-1341_gender-M_age-19	valence	0.4293566108769489	1.377029985220361
id-1302_gender-F_age-30	2	4	2	7	47	id-1302_gender-F_age-30	arousal	0.16711275422515032	1.468805541603615
id-1302_gender-F_age-30	2	4	2	7	47	id-1302_gender-F_age-30	valence	0.4293566108769489	1.468805541603615
id-1294_gender-F_age-26	2	4	2	7	48	id-1294_gender-F_age-26	arousal	0.15080807279944347	2.2270622235000697
id-1294_gender-F_age-26	2	4	2	7	48	id-1294_gender-F_age-26	valence	0.312506393992716	2.2270622235000697
id-1342_gender-M_age-19	2	4	2	7	49	id-1342_gender-M_age-19	arousal	0.12227488030445632	1.1102805696154974
id-1342_gender-M_age-19	2	4	2	7	49	id-1342_gender-M_age-19	valence	0.4103344825469576	1.1102805696154974
id-1260_gender-F_age-22	2	4	2	7	50	id-1260_gender-F_age-22	arousal	0.2608646724229652	1.143561158549346
id-1260_gender-F_age-22	2	4	2	7	50	id-1260_gender-F_age-22	valence	0.3097889470884315	1.143561158549346
