	rep	session	run	block	trial	trial_type	rating_type	rating	rating_RT
id-1347_gender-F_age-27	1	4	1	1	1	id-1347_gender-F_age-27	dominance	-0.7975	1.893
id-1354_gender-F_age-23	1	4	1	1	2	id-1354_gender-F_age-23	dominance	-0.5525	2.185
id-1307_gender-F_age-22	1	4	1	1	3	id-1307_gender-F_age-22	dominance	-0.38249999999999995	1.2009999999999998
id-1297_gender-F_age-22	1	4	1	1	4	id-1297_gender-F_age-22	dominance	0.1825000000000001	0.8009999999999999
id-1339_gender-F_age-30	1	4	1	1	5	id-1339_gender-F_age-30	dominance	-0.22499999999999998	0.693
id-1366_gender-F_age-24	1	4	1	1	6	id-1366_gender-F_age-24	dominance	-0.10999999999999999	0.96
id-1289_gender-F_age-20	1	4	1	1	7	id-1289_gender-F_age-20	dominance	0.1775	0.718
id-1360_gender-F_age-20	1	4	1	1	8	id-1360_gender-F_age-20	dominance	-0.2775000000000001	0.809
id-1315_gender-M_age-16	1	4	1	1	9	id-1315_gender-M_age-16	dominance	0.5074999999999998	0.943
id-1363_gender-M_age-19	1	4	1	1	10	id-1363_gender-M_age-19	dominance	-0.31999999999999995	0.7090000000000001
id-1291_gender-F_age-24	1	4	1	1	11	id-1291_gender-F_age-24	dominance	-0.007499999999999951	0.735
id-1358_gender-F_age-32	1	4	1	1	12	id-1358_gender-F_age-32	dominance	0.14500000000000002	0.735
id-1296_gender-F_age-23	1	4	1	1	13	id-1296_gender-F_age-23	dominance	-0.22750000000000004	0.759
id-1310_gender-F_age-28	1	4	1	1	14	id-1310_gender-F_age-28	dominance	0.49	0.818
id-1280_gender-M_age-18	1	4	1	1	15	id-1280_gender-M_age-18	dominance	0.007500000000000062	0.843
id-1377_gender-M_age-20	1	4	1	1	16	id-1377_gender-M_age-20	dominance	0.32499999999999996	0.809
id-1311_gender-F_age-22	1	4	1	1	17	id-1311_gender-F_age-22	dominance	0.0024999999999999467	0.434
id-1269_gender-F_age-23	1	4	1	1	18	id-1269_gender-F_age-23	dominance	0.20999999999999996	1.2930000000000001
id-1342_gender-M_age-19	1	4	1	1	19	id-1342_gender-M_age-19	dominance	0.6600000000000001	1.0090000000000001
id-1273_gender-F_age-20	1	4	1	1	20	id-1273_gender-F_age-20	dominance	-0.265	0.6679999999999999
id-1373_gender-F_age-30	1	4	1	1	21	id-1373_gender-F_age-30	dominance	-0.7075	1.3259999999999998
id-1361_gender-F_age-19	1	4	1	1	22	id-1361_gender-F_age-19	dominance	-0.08250000000000002	2.01
id-1318_gender-M_age-35	1	4	1	1	23	id-1318_gender-M_age-35	dominance	0.575	0.884
id-1266_gender-M_age-21	1	4	1	1	24	id-1266_gender-M_age-21	dominance	0.3325	0.718
id-1295_gender-F_age-26	1	4	1	1	25	id-1295_gender-F_age-26	dominance	0.16999999999999993	0.44299999999999995
id-1293_gender-F_age-31	1	4	1	1	26	id-1293_gender-F_age-31	dominance	-0.04249999999999998	0.526
id-1362_gender-F_age-24	1	4	1	1	27	id-1362_gender-F_age-24	dominance	-0.43999999999999995	0.893
id-1294_gender-F_age-26	1	4	1	1	28	id-1294_gender-F_age-26	dominance	-0.1925	0.601
id-1323_gender-F_age-23	1	4	1	1	29	id-1323_gender-F_age-23	dominance	0.18999999999999995	0.5760000000000001
id-1279_gender-F_age-19	1	4	1	1	30	id-1279_gender-F_age-19	dominance	-0.53	1.109
id-1356_gender-F_age-20	1	4	1	1	31	id-1356_gender-F_age-20	dominance	-0.25249999999999995	0.5760000000000001
id-1274_gender-F_age-33	1	4	1	1	32	id-1274_gender-F_age-33	dominance	0.33499999999999996	1.168
id-1370_gender-M_age-19	1	4	1	1	33	id-1370_gender-M_age-19	dominance	0.16749999999999998	0.44299999999999995
id-1376_gender-F_age-19	1	4	1	1	34	id-1376_gender-F_age-19	dominance	-0.21499999999999997	0.551
id-1302_gender-F_age-30	1	4	1	1	35	id-1302_gender-F_age-30	dominance	0.04499999999999993	0.485
id-1270_gender-F_age-30	1	4	1	1	36	id-1270_gender-F_age-30	dominance	0.2875000000000001	0.7759999999999999
id-1344_gender-M_age-25	1	4	1	1	37	id-1344_gender-M_age-25	dominance	-0.24250000000000005	0.835
id-1341_gender-M_age-19	1	4	1	1	38	id-1341_gender-M_age-19	dominance	0.06499999999999995	1.5430000000000001
id-1285_gender-F_age-19	1	4	1	1	39	id-1285_gender-F_age-19	dominance	-0.33499999999999996	0.759
id-1264_gender-F_age-26	1	4	1	1	40	id-1264_gender-F_age-26	dominance	-0.4650000000000001	0.91
id-1260_gender-F_age-22	1	4	1	1	41	id-1260_gender-F_age-22	dominance	-0.5875	1.06
id-1355_gender-F_age-19	1	4	1	1	42	id-1355_gender-F_age-19	dominance	-0.475	0.768
id-1290_gender-F_age-23	1	4	1	1	43	id-1290_gender-F_age-23	dominance	0.47	0.809
id-1367_gender-M_age-20	1	4	1	1	44	id-1367_gender-M_age-20	dominance	0.49750000000000005	0.884
id-1378_gender-F_age-19	1	4	1	1	45	id-1378_gender-F_age-19	dominance	0.15749999999999997	0.7759999999999999
id-1335_gender-M_age-23	1	4	1	1	46	id-1335_gender-M_age-23	dominance	0.3274999999999999	1.043
id-1309_gender-M_age-22	1	4	1	1	47	id-1309_gender-M_age-22	dominance	-0.10250000000000004	0.526
id-1345_gender-M_age-18	1	4	1	1	48	id-1345_gender-M_age-18	dominance	0.5925	1.193
id-1306_gender-F_age-21	1	4	1	1	49	id-1306_gender-F_age-21	dominance	0.37749999999999995	1.251
id-1380_gender-F_age-21	1	4	1	1	50	id-1380_gender-F_age-21	dominance	0.25750000000000006	0.626
id-1291_gender-F_age-24	1	4	1	4	1	id-1291_gender-F_age-24	arousal	0.650818303187789	1.4770027387294251
id-1291_gender-F_age-24	1	4	1	4	1	id-1291_gender-F_age-24	valence	-0.4293566108769489	1.4770027387294251
id-1344_gender-M_age-25	1	4	1	4	2	id-1344_gender-M_age-25	arousal	0.4116829756107542	0.7268884112208979
id-1344_gender-M_age-25	1	4	1	4	2	id-1344_gender-M_age-25	valence	-0.6277302348897165	0.7268884112208979
id-1293_gender-F_age-31	1	4	1	4	3	id-1293_gender-F_age-31	arousal	0.8600617148176946	1.2436792358003004
id-1293_gender-F_age-31	1	4	1	4	3	id-1293_gender-F_age-31	valence	-0.6793617260711217	1.2436792358003004
id-1279_gender-F_age-19	1	4	1	4	4	id-1279_gender-F_age-19	arousal	0.6222851106928019	1.943489157827571
id-1279_gender-F_age-19	1	4	1	4	4	id-1279_gender-F_age-19	valence	0.36685533207840576	1.943489157827571
id-1378_gender-F_age-19	1	4	1	4	5	id-1378_gender-F_age-19	arousal	0.3124961636043704	0.660334859611794
id-1378_gender-F_age-19	1	4	1	4	5	id-1378_gender-F_age-19	valence	0.5869685313254491	0.660334859611794
id-1306_gender-F_age-21	1	4	1	4	6	id-1306_gender-F_age-21	arousal	0.3016263759872324	1.3354750938087818
id-1306_gender-F_age-21	1	4	1	4	6	id-1306_gender-F_age-21	valence	-0.1630468142570692	1.3354750938087818
id-1342_gender-M_age-19	1	4	1	4	7	id-1342_gender-M_age-19	arousal	0.8858774604083972	3.4857043072570377
id-1342_gender-M_age-19	1	4	1	4	7	id-1342_gender-M_age-19	valence	-0.6929489605925442	3.4857043072570377
id-1339_gender-F_age-30	1	4	1	4	8	id-1339_gender-F_age-30	arousal	0.43885744465359905	2.318726679829524
id-1339_gender-F_age-30	1	4	1	4	8	id-1339_gender-F_age-30	valence	0.8505608810410444	2.318726679829524
id-1347_gender-F_age-27	1	4	1	4	9	id-1347_gender-F_age-27	arousal	0.8070715001841471	1.0937195786946177
id-1347_gender-F_age-27	1	4	1	4	9	id-1347_gender-F_age-27	valence	0.3967472480255351	1.0937195786946177
id-1310_gender-F_age-28	1	4	1	4	10	id-1310_gender-F_age-28	arousal	0.7255480930556124	1.226938670045456
id-1310_gender-F_age-28	1	4	1	4	10	id-1310_gender-F_age-28	valence	-0.057066384989974225	1.226938670045456
id-1366_gender-F_age-24	1	4	1	4	11	id-1366_gender-F_age-24	arousal	0.7663097966198797	0.9020538502936688
id-1366_gender-F_age-24	1	4	1	4	11	id-1366_gender-F_age-24	valence	0.2500051151941728	0.9020538502936688
id-1323_gender-F_age-23	1	4	1	4	12	id-1323_gender-F_age-23	arousal	0.7690272435241643	1.0020348032558104
id-1323_gender-F_age-23	1	4	1	4	12	id-1323_gender-F_age-23	valence	-0.11956766378851742	1.0020348032558104
id-1318_gender-M_age-35	1	4	1	4	13	id-1318_gender-M_age-35	arousal	0.6358723452142243	0.8851973722930779
id-1318_gender-M_age-35	1	4	1	4	13	id-1318_gender-M_age-35	valence	-0.07065361951139666	0.8851973722930779
id-1341_gender-M_age-19	1	4	1	4	14	id-1341_gender-M_age-19	arousal	0.5652187257028277	0.7770346447814518
id-1341_gender-M_age-19	1	4	1	4	14	id-1341_gender-M_age-19	valence	0.28533192494987114	0.7770346447814518
id-1355_gender-F_age-19	1	4	1	4	15	id-1355_gender-F_age-19	arousal	0.6779927722306338	3.127416838245153
id-1355_gender-F_age-19	1	4	1	4	15	id-1355_gender-F_age-19	valence	-0.1032629823628105	3.127416838245153
id-1345_gender-M_age-18	1	4	1	4	16	id-1345_gender-M_age-18	arousal	0.2268965861194091	0.9269819258397548
id-1345_gender-M_age-18	1	4	1	4	16	id-1345_gender-M_age-18	valence	0.2500051151941728	0.9269819258397548
id-1294_gender-F_age-26	1	4	1	4	17	id-1294_gender-F_age-26	arousal	0.5366855332078406	1.0269100542100205
id-1294_gender-F_age-26	1	4	1	4	17	id-1294_gender-F_age-26	valence	0.4565310799197938	1.0269100542100205
id-1296_gender-F_age-23	1	4	1	4	18	id-1296_gender-F_age-23	arousal	0.33559446229078854	2.1274056696183834
id-1296_gender-F_age-23	1	4	1	4	18	id-1296_gender-F_age-23	valence	0.5054451241969146	2.1274056696183834
id-1363_gender-M_age-19	1	4	1	4	19	id-1363_gender-M_age-19	arousal	0.7418527744813194	0.910375383619794
id-1363_gender-M_age-19	1	4	1	4	19	id-1363_gender-M_age-19	valence	0.2364178806727504	0.910375383619794
id-1362_gender-F_age-24	1	4	1	4	20	id-1362_gender-F_age-24	arousal	0.21738552195441335	0.9519652408143884
id-1362_gender-F_age-24	1	4	1	4	20	id-1362_gender-F_age-24	valence	0.20652596472562101	0.9519652408143884
id-1307_gender-F_age-22	1	4	1	4	21	id-1307_gender-F_age-22	arousal	0.555707661537832	0.6184841998629054
id-1307_gender-F_age-22	1	4	1	4	21	id-1307_gender-F_age-22	valence	-0.3423983099398454	0.6184841998629054
id-1285_gender-F_age-19	1	4	1	4	22	id-1285_gender-F_age-19	arousal	0.7635923497155952	2.9355902212319047
id-1285_gender-F_age-19	1	4	1	4	22	id-1285_gender-F_age-19	valence	-0.2581574559070263	2.9355902212319047
id-1273_gender-F_age-20	1	4	1	4	23	id-1273_gender-F_age-20	arousal	0.3016263759872324	0.6685486307715109
id-1273_gender-F_age-20	1	4	1	4	23	id-1273_gender-F_age-20	valence	0.6684919384539837	0.6685486307715109
id-1266_gender-M_age-21	1	4	1	4	24	id-1266_gender-M_age-21	arousal	0.21059190469370215	1.318633104840046
id-1266_gender-M_age-21	1	4	1	4	24	id-1266_gender-M_age-21	valence	0.4592485268240783	1.318633104840046
id-1361_gender-F_age-19	1	4	1	4	25	id-1361_gender-F_age-19	arousal	0.706525964725621	0.935285649731668
id-1361_gender-F_age-19	1	4	1	4	25	id-1361_gender-F_age-19	valence	0.41305192945124203	0.935285649731668
id-1295_gender-F_age-26	1	4	1	4	26	id-1295_gender-F_age-26	arousal	0.3586927609772067	0.5853701237992937
id-1295_gender-F_age-26	1	4	1	4	26	id-1295_gender-F_age-26	valence	-0.0625012787985432	0.5853701237992937
id-1370_gender-M_age-19	1	4	1	4	27	id-1370_gender-M_age-19	arousal	0.22010296885869785	0.9854813874826504
id-1370_gender-M_age-19	1	4	1	4	27	id-1370_gender-M_age-19	valence	0.6929489605925442	0.9854813874826504
id-1289_gender-F_age-20	1	4	1	4	28	id-1289_gender-F_age-20	arousal	0.5489140442771208	3.1771963182163745
id-1289_gender-F_age-20	1	4	1	4	28	id-1289_gender-F_age-20	valence	0.6847966198796908	3.1771963182163745
id-1356_gender-F_age-20	1	4	1	4	29	id-1356_gender-F_age-20	arousal	0.21059190469370215	1.0353659129250443
id-1356_gender-F_age-20	1	4	1	4	29	id-1356_gender-F_age-20	valence	0.5652289560911733	1.0353659129250443
id-1297_gender-F_age-22	1	4	1	4	30	id-1297_gender-F_age-22	arousal	0.5312506393992716	0.8353385045083996
id-1297_gender-F_age-22	1	4	1	4	30	id-1297_gender-F_age-22	valence	0.057066384989974225	0.8353385045083996
id-1270_gender-F_age-30	1	4	1	4	31	id-1270_gender-F_age-30	arousal	0.46195574334001716	0.4854012450305163
id-1270_gender-F_age-30	1	4	1	4	31	id-1270_gender-F_age-30	valence	-0.03804425665998282	0.4854012450305163
id-1358_gender-F_age-32	1	4	1	4	32	id-1358_gender-F_age-32	arousal	0.6426659624749356	0.6935512644540722
id-1358_gender-F_age-32	1	4	1	4	32	id-1358_gender-F_age-32	valence	0.11413276997994845	0.6935512644540722
id-1302_gender-F_age-30	1	4	1	4	33	id-1302_gender-F_age-30	arousal	0.6413072390227933	0.9686430207693776
id-1302_gender-F_age-30	1	4	1	4	33	id-1302_gender-F_age-30	valence	-0.2418527744813193	0.9686430207693776
id-1373_gender-F_age-30	1	4	1	4	34	id-1373_gender-F_age-30	arousal	0.5896757478413881	4.585734462552863
id-1373_gender-F_age-30	1	4	1	4	34	id-1373_gender-F_age-30	valence	-0.21196085853419	4.585734462552863
id-1274_gender-F_age-33	1	4	1	4	35	id-1274_gender-F_age-33	arousal	0.5815234071285346	0.6103190273279324
id-1274_gender-F_age-33	1	4	1	4	35	id-1274_gender-F_age-33	valence	-0.5706638498997423	0.6103190273279324
id-1260_gender-F_age-22	1	4	1	4	36	id-1260_gender-F_age-22	arousal	0.6114153230756639	1.6936919287963974
id-1260_gender-F_age-22	1	4	1	4	36	id-1260_gender-F_age-22	valence	0.6087081065597252	1.6936919287963974
id-1280_gender-M_age-18	1	4	1	4	37	id-1280_gender-M_age-18	arousal	0.6481008562835046	0.5018740655705187
id-1280_gender-M_age-18	1	4	1	4	37	id-1280_gender-M_age-18	valence	-0.42120427016409545	0.5018740655705187
id-1376_gender-F_age-19	1	4	1	4	38	id-1376_gender-F_age-19	arousal	0.7309829868641813	1.0352838084163525
id-1376_gender-F_age-19	1	4	1	4	38	id-1376_gender-F_age-19	valence	0.6277302348897165	1.0352838084163525
id-1315_gender-M_age-16	1	4	1	4	39	id-1315_gender-M_age-16	arousal	0.5095110641649957	1.3354421916355932
id-1315_gender-M_age-16	1	4	1	4	39	id-1315_gender-M_age-16	valence	0.4782706551540697	1.3354421916355932
id-1290_gender-F_age-23	1	4	1	4	40	id-1290_gender-F_age-23	arousal	0.5380442566599828	2.1855773169390886
id-1290_gender-F_age-23	1	4	1	4	40	id-1290_gender-F_age-23	valence	-0.1711991549699227	2.1855773169390886
id-1354_gender-F_age-23	1	4	1	4	41	id-1354_gender-F_age-23	arousal	0.6019042589106682	1.1019710817054147
id-1354_gender-F_age-23	1	4	1	4	41	id-1354_gender-F_age-23	valence	-0.7174059827311046	1.1019710817054147
id-1309_gender-M_age-22	1	4	1	4	42	id-1309_gender-M_age-22	arousal	0.282604247657241	0.8271866135837627
id-1309_gender-M_age-22	1	4	1	4	42	id-1309_gender-M_age-22	valence	-0.3505506506526989	0.8271866135837627
id-1269_gender-F_age-23	1	4	1	4	43	id-1269_gender-F_age-23	arousal	0.20787445778941765	0.8186474429421651
id-1269_gender-F_age-23	1	4	1	4	43	id-1269_gender-F_age-23	valence	0.23370043376846586	0.8186474429421651
id-1335_gender-M_age-23	1	4	1	4	44	id-1335_gender-M_age-23	arousal	0.43478127429717234	3.827170917134936
id-1335_gender-M_age-23	1	4	1	4	44	id-1335_gender-M_age-23	valence	0.6059906596554406	3.827170917134936
id-1311_gender-F_age-22	1	4	1	4	45	id-1311_gender-F_age-22	arousal	0.2812455242050988	0.8020342599156719
id-1311_gender-F_age-22	1	4	1	4	45	id-1311_gender-F_age-22	valence	0.6630570446454148	0.8020342599156719
id-1377_gender-M_age-20	1	4	1	4	46	id-1377_gender-M_age-20	arousal	0.18749360600728399	0.6519774055632297
id-1377_gender-M_age-20	1	4	1	4	46	id-1377_gender-M_age-20	valence	0.5815336375168803	0.6519774055632297
id-1367_gender-M_age-20	1	4	1	4	47	id-1367_gender-M_age-20	arousal	0.6073391527192372	0.91866159993333
id-1367_gender-M_age-20	1	4	1	4	47	id-1367_gender-M_age-20	valence	0.7309932172525271	0.91866159993333
id-1360_gender-F_age-20	1	4	1	4	48	id-1360_gender-F_age-20	arousal	0.4782604247657241	3.0771492590520215
id-1360_gender-F_age-20	1	4	1	4	48	id-1360_gender-F_age-20	valence	0.22283064615132792	3.0771492590520215
id-1380_gender-F_age-21	1	4	1	4	49	id-1380_gender-F_age-21	arousal	0.2771693538486721	2.6855192098901166
id-1380_gender-F_age-21	1	4	1	4	49	id-1380_gender-F_age-21	valence	0.08967574784138807	2.6855192098901166
id-1264_gender-F_age-26	1	4	1	4	50	id-1264_gender-F_age-26	arousal	0.6888625598477718	0.44343920085884747
id-1264_gender-F_age-26	1	4	1	4	50	id-1264_gender-F_age-26	valence	0.15761192044850025	0.44343920085884747
id-1315_gender-M_age-16	1	4	1	5	1	id-1315_gender-M_age-16	attractiveness	0.19500000000000006	0.9009999999999999
id-1270_gender-F_age-30	1	4	1	5	2	id-1270_gender-F_age-30	attractiveness	-0.36250000000000004	0.718
id-1341_gender-M_age-19	1	4	1	5	3	id-1341_gender-M_age-19	attractiveness	0.03750000000000009	1.101
id-1296_gender-F_age-23	1	4	1	5	4	id-1296_gender-F_age-23	attractiveness	-0.17000000000000004	0.768
id-1264_gender-F_age-26	1	4	1	5	5	id-1264_gender-F_age-26	attractiveness	0.3899999999999999	1.2930000000000001
id-1311_gender-F_age-22	1	4	1	5	6	id-1311_gender-F_age-22	attractiveness	0.0674999999999999	0.843
id-1310_gender-F_age-28	1	4	1	5	7	id-1310_gender-F_age-28	attractiveness	-0.21250000000000002	0.743
id-1293_gender-F_age-31	1	4	1	5	8	id-1293_gender-F_age-31	attractiveness	-0.19999999999999996	0.951
id-1378_gender-F_age-19	1	4	1	5	9	id-1378_gender-F_age-19	attractiveness	0.4575	0.659
id-1366_gender-F_age-24	1	4	1	5	10	id-1366_gender-F_age-24	attractiveness	-0.3325	0.5589999999999999
id-1339_gender-F_age-30	1	4	1	5	11	id-1339_gender-F_age-30	attractiveness	-0.43000000000000005	1.051
id-1344_gender-M_age-25	1	4	1	5	12	id-1344_gender-M_age-25	attractiveness	-0.6225	1.0759999999999998
id-1274_gender-F_age-33	1	4	1	5	13	id-1274_gender-F_age-33	attractiveness	-0.63	0.968
id-1376_gender-F_age-19	1	4	1	5	14	id-1376_gender-F_age-19	attractiveness	0.3899999999999999	0.743
id-1307_gender-F_age-22	1	4	1	5	15	id-1307_gender-F_age-22	attractiveness	-0.66	0.9009999999999999
id-1360_gender-F_age-20	1	4	1	5	16	id-1360_gender-F_age-20	attractiveness	0.15749999999999997	0.851
id-1285_gender-F_age-19	1	4	1	5	17	id-1285_gender-F_age-19	attractiveness	0.0024999999999999467	0.485
id-1356_gender-F_age-20	1	4	1	5	18	id-1356_gender-F_age-20	attractiveness	-0.10499999999999998	0.626
id-1355_gender-F_age-19	1	4	1	5	19	id-1355_gender-F_age-19	attractiveness	-0.135	0.8009999999999999
id-1323_gender-F_age-23	1	4	1	5	20	id-1323_gender-F_age-23	attractiveness	-0.2925	0.993
id-1363_gender-M_age-19	1	4	1	5	21	id-1363_gender-M_age-19	attractiveness	-0.6875	0.826
id-1309_gender-M_age-22	1	4	1	5	22	id-1309_gender-M_age-22	attractiveness	-0.6525000000000001	0.784
id-1354_gender-F_age-23	1	4	1	5	23	id-1354_gender-F_age-23	attractiveness	-0.6225	0.968
id-1367_gender-M_age-20	1	4	1	5	24	id-1367_gender-M_age-20	attractiveness	0.20500000000000007	0.601
id-1362_gender-F_age-24	1	4	1	5	25	id-1362_gender-F_age-24	attractiveness	-0.12250000000000005	0.409
id-1347_gender-F_age-27	1	4	1	5	26	id-1347_gender-F_age-27	attractiveness	-0.28	0.601
id-1318_gender-M_age-35	1	4	1	5	27	id-1318_gender-M_age-35	attractiveness	-0.13249999999999995	0.659
id-1269_gender-F_age-23	1	4	1	5	28	id-1269_gender-F_age-23	attractiveness	0.06000000000000005	0.6759999999999999
id-1260_gender-F_age-22	1	4	1	5	29	id-1260_gender-F_age-22	attractiveness	0.3600000000000001	0.568
id-1370_gender-M_age-19	1	4	1	5	30	id-1370_gender-M_age-19	attractiveness	0.14749999999999996	0.5760000000000001
id-1377_gender-M_age-20	1	4	1	5	31	id-1377_gender-M_age-20	attractiveness	0.6675	0.943
id-1290_gender-F_age-23	1	4	1	5	32	id-1290_gender-F_age-23	attractiveness	0.6425000000000001	0.951
id-1295_gender-F_age-26	1	4	1	5	33	id-1295_gender-F_age-26	attractiveness	-0.15000000000000002	0.718
id-1280_gender-M_age-18	1	4	1	5	34	id-1280_gender-M_age-18	attractiveness	-0.7125	1.084
id-1273_gender-F_age-20	1	4	1	5	35	id-1273_gender-F_age-20	attractiveness	-0.17000000000000004	0.518
id-1291_gender-F_age-24	1	4	1	5	36	id-1291_gender-F_age-24	attractiveness	-0.12749999999999995	1.2429999999999999
id-1335_gender-M_age-23	1	4	1	5	37	id-1335_gender-M_age-23	attractiveness	-0.27	0.8759999999999999
id-1289_gender-F_age-20	1	4	1	5	38	id-1289_gender-F_age-20	attractiveness	0.25249999999999995	0.784
id-1266_gender-M_age-21	1	4	1	5	39	id-1266_gender-M_age-21	attractiveness	0.0	0.318
id-1373_gender-F_age-30	1	4	1	5	40	id-1373_gender-F_age-30	attractiveness	-0.04500000000000004	0.677
id-1358_gender-F_age-32	1	4	1	5	41	id-1358_gender-F_age-32	attractiveness	0.15999999999999992	0.509
id-1297_gender-F_age-22	1	4	1	5	42	id-1297_gender-F_age-22	attractiveness	0.0	0.318
id-1279_gender-F_age-19	1	4	1	5	43	id-1279_gender-F_age-19	attractiveness	-0.14500000000000002	1.01
id-1302_gender-F_age-30	1	4	1	5	44	id-1302_gender-F_age-30	attractiveness	-0.3325	0.6679999999999999
id-1361_gender-F_age-19	1	4	1	5	45	id-1361_gender-F_age-19	attractiveness	-0.10999999999999999	0.643
id-1342_gender-M_age-19	1	4	1	5	46	id-1342_gender-M_age-19	attractiveness	-0.48	0.884
id-1294_gender-F_age-26	1	4	1	5	47	id-1294_gender-F_age-26	attractiveness	-0.06999999999999995	1.001
id-1345_gender-M_age-18	1	4	1	5	48	id-1345_gender-M_age-18	attractiveness	0.56	1.001
id-1306_gender-F_age-21	1	4	1	5	49	id-1306_gender-F_age-21	attractiveness	0.3799999999999999	0.867
id-1380_gender-F_age-21	1	4	1	5	50	id-1380_gender-F_age-21	attractiveness	0.20500000000000007	0.618
id-1270_gender-F_age-30	1	4	1	8	1	id-1270_gender-F_age-30	trustworthiness	-0.235	0.935
id-1339_gender-F_age-30	1	4	1	8	2	id-1339_gender-F_age-30	trustworthiness	0.47750000000000004	0.626
id-1341_gender-M_age-19	1	4	1	8	3	id-1341_gender-M_age-19	trustworthiness	0.15749999999999997	0.609
id-1296_gender-F_age-23	1	4	1	8	4	id-1296_gender-F_age-23	trustworthiness	-0.13	0.451
id-1311_gender-F_age-22	1	4	1	8	5	id-1311_gender-F_age-22	trustworthiness	0.4650000000000001	1.2009999999999998
id-1347_gender-F_age-27	1	4	1	8	6	id-1347_gender-F_age-27	trustworthiness	-0.09250000000000003	0.526
id-1289_gender-F_age-20	1	4	1	8	7	id-1289_gender-F_age-20	trustworthiness	0.28	0.693
id-1358_gender-F_age-32	1	4	1	8	8	id-1358_gender-F_age-32	trustworthiness	0.24249999999999994	0.5429999999999999
id-1376_gender-F_age-19	1	4	1	8	9	id-1376_gender-F_age-19	trustworthiness	0.5874999999999999	0.8340000000000001
id-1380_gender-F_age-21	1	4	1	8	10	id-1380_gender-F_age-21	trustworthiness	0.6875	0.568
id-1302_gender-F_age-30	1	4	1	8	11	id-1302_gender-F_age-30	trustworthiness	-0.19999999999999996	0.593
id-1370_gender-M_age-19	1	4	1	8	12	id-1370_gender-M_age-19	trustworthiness	0.3125	1.985
id-1306_gender-F_age-21	1	4	1	8	13	id-1306_gender-F_age-21	trustworthiness	-0.007499999999999951	0.7090000000000001
id-1356_gender-F_age-20	1	4	1	8	14	id-1356_gender-F_age-20	trustworthiness	0.05750000000000011	1.5590000000000002
id-1315_gender-M_age-16	1	4	1	8	15	id-1315_gender-M_age-16	trustworthiness	-0.2025	0.8009999999999999
id-1362_gender-F_age-24	1	4	1	8	16	id-1362_gender-F_age-24	trustworthiness	-0.38249999999999995	0.726
id-1297_gender-F_age-22	1	4	1	8	17	id-1297_gender-F_age-22	trustworthiness	-0.13249999999999995	0.493
id-1345_gender-M_age-18	1	4	1	8	18	id-1345_gender-M_age-18	trustworthiness	-0.16249999999999998	0.518
id-1260_gender-F_age-22	1	4	1	8	19	id-1260_gender-F_age-22	trustworthiness	0.24750000000000005	0.501
id-1295_gender-F_age-26	1	4	1	8	20	id-1295_gender-F_age-26	trustworthiness	-0.43000000000000005	0.509
id-1290_gender-F_age-23	1	4	1	8	21	id-1290_gender-F_age-23	trustworthiness	-0.4025000000000001	0.6759999999999999
id-1344_gender-M_age-25	1	4	1	8	22	id-1344_gender-M_age-25	trustworthiness	-0.675	0.643
id-1266_gender-M_age-21	1	4	1	8	23	id-1266_gender-M_age-21	trustworthiness	-0.5075	0.659
id-1309_gender-M_age-22	1	4	1	8	24	id-1309_gender-M_age-22	trustworthiness	-0.57	0.943
id-1342_gender-M_age-19	1	4	1	8	25	id-1342_gender-M_age-19	trustworthiness	-0.6625	0.66
id-1367_gender-M_age-20	1	4	1	8	26	id-1367_gender-M_age-20	trustworthiness	0.2749999999999999	0.359
id-1366_gender-F_age-24	1	4	1	8	27	id-1366_gender-F_age-24	trustworthiness	0.29499999999999993	0.659
id-1264_gender-F_age-26	1	4	1	8	28	id-1264_gender-F_age-26	trustworthiness	0.03750000000000009	2.0180000000000002
id-1318_gender-M_age-35	1	4	1	8	29	id-1318_gender-M_age-35	trustworthiness	-0.57	0.759
id-1363_gender-M_age-19	1	4	1	8	30	id-1363_gender-M_age-19	trustworthiness	-0.27	0.534
id-1279_gender-F_age-19	1	4	1	8	31	id-1279_gender-F_age-19	trustworthiness	0.19500000000000006	0.626
id-1355_gender-F_age-19	1	4	1	8	32	id-1355_gender-F_age-19	trustworthiness	-0.0024999999999999467	0.309
id-1294_gender-F_age-26	1	4	1	8	33	id-1294_gender-F_age-26	trustworthiness	0.1100000000000001	1.71
id-1378_gender-F_age-19	1	4	1	8	34	id-1378_gender-F_age-19	trustworthiness	0.5074999999999998	0.868
id-1273_gender-F_age-20	1	4	1	8	35	id-1273_gender-F_age-20	trustworthiness	0.7375	0.8759999999999999
id-1293_gender-F_age-31	1	4	1	8	36	id-1293_gender-F_age-31	trustworthiness	-0.4675	0.893
id-1285_gender-F_age-19	1	4	1	8	37	id-1285_gender-F_age-19	trustworthiness	0.09749999999999992	1.01
id-1361_gender-F_age-19	1	4	1	8	38	id-1361_gender-F_age-19	trustworthiness	-0.5025	0.868
id-1274_gender-F_age-33	1	4	1	8	39	id-1274_gender-F_age-33	trustworthiness	-0.8875	0.609
id-1291_gender-F_age-24	1	4	1	8	40	id-1291_gender-F_age-24	trustworthiness	-0.4525	0.993
id-1373_gender-F_age-30	1	4	1	8	41	id-1373_gender-F_age-30	trustworthiness	-0.12250000000000005	0.7929999999999999
id-1323_gender-F_age-23	1	4	1	8	42	id-1323_gender-F_age-23	trustworthiness	-0.13249999999999995	0.8340000000000001
id-1377_gender-M_age-20	1	4	1	8	43	id-1377_gender-M_age-20	trustworthiness	0.4175	0.718
id-1310_gender-F_age-28	1	4	1	8	44	id-1310_gender-F_age-28	trustworthiness	-0.21750000000000003	0.768
id-1307_gender-F_age-22	1	4	1	8	45	id-1307_gender-F_age-22	trustworthiness	-0.2975	1.084
id-1360_gender-F_age-20	1	4	1	8	46	id-1360_gender-F_age-20	trustworthiness	0.19500000000000006	0.45899999999999996
id-1269_gender-F_age-23	1	4	1	8	47	id-1269_gender-F_age-23	trustworthiness	-0.18500000000000005	0.618
id-1280_gender-M_age-18	1	4	1	8	48	id-1280_gender-M_age-18	trustworthiness	-0.5725	1.218
id-1354_gender-F_age-23	1	4	1	8	49	id-1354_gender-F_age-23	trustworthiness	-0.565	0.843
id-1335_gender-M_age-23	1	4	1	8	50	id-1335_gender-M_age-23	trustworthiness	0.2124999999999999	0.7509999999999999
id-1302_gender-F_age-30	2	4	2	2	1	id-1302_gender-F_age-30	attractiveness	-0.735	0.7090000000000001
id-1269_gender-F_age-23	2	4	2	2	2	id-1269_gender-F_age-23	attractiveness	-0.1775	0.6759999999999999
id-1295_gender-F_age-26	2	4	2	2	3	id-1295_gender-F_age-26	attractiveness	-0.18500000000000005	0.909
id-1377_gender-M_age-20	2	4	2	2	4	id-1377_gender-M_age-20	attractiveness	0.7450000000000001	0.843
id-1360_gender-F_age-20	2	4	2	2	5	id-1360_gender-F_age-20	attractiveness	-0.20750000000000002	0.7090000000000001
id-1370_gender-M_age-19	2	4	2	2	6	id-1370_gender-M_age-19	attractiveness	0.1100000000000001	1.16
id-1373_gender-F_age-30	2	4	2	2	7	id-1373_gender-F_age-30	attractiveness	-0.43500000000000005	0.643
id-1291_gender-F_age-24	2	4	2	2	8	id-1291_gender-F_age-24	attractiveness	-0.1725	0.584
id-1307_gender-F_age-22	2	4	2	2	9	id-1307_gender-F_age-22	attractiveness	-0.56	0.6679999999999999
id-1356_gender-F_age-20	2	4	2	2	10	id-1356_gender-F_age-20	attractiveness	-0.14	0.752
id-1264_gender-F_age-26	2	4	2	2	11	id-1264_gender-F_age-26	attractiveness	0.09000000000000008	0.7759999999999999
id-1323_gender-F_age-23	2	4	2	2	12	id-1323_gender-F_age-23	attractiveness	-0.21750000000000003	0.551
id-1366_gender-F_age-24	2	4	2	2	13	id-1366_gender-F_age-24	attractiveness	-0.4575	0.759
id-1290_gender-F_age-23	2	4	2	2	14	id-1290_gender-F_age-23	attractiveness	0.27	0.584
id-1274_gender-F_age-33	2	4	2	2	15	id-1274_gender-F_age-33	attractiveness	-0.38749999999999996	0.7090000000000001
id-1296_gender-F_age-23	2	4	2	2	16	id-1296_gender-F_age-23	attractiveness	-0.16500000000000004	0.851
id-1380_gender-F_age-21	2	4	2	2	17	id-1380_gender-F_age-21	attractiveness	-0.37250000000000005	1.5090000000000001
id-1279_gender-F_age-19	2	4	2	2	18	id-1279_gender-F_age-19	attractiveness	-0.235	0.526
id-1310_gender-F_age-28	2	4	2	2	19	id-1310_gender-F_age-28	attractiveness	0.03499999999999992	0.601
id-1315_gender-M_age-16	2	4	2	2	20	id-1315_gender-M_age-16	attractiveness	-0.12749999999999995	2.226
id-1260_gender-F_age-22	2	4	2	2	21	id-1260_gender-F_age-22	attractiveness	0.07250000000000001	0.6759999999999999
id-1362_gender-F_age-24	2	4	2	2	22	id-1362_gender-F_age-24	attractiveness	-0.06999999999999995	0.626
id-1358_gender-F_age-32	2	4	2	2	23	id-1358_gender-F_age-32	attractiveness	0.38250000000000006	0.7509999999999999
id-1306_gender-F_age-21	2	4	2	2	24	id-1306_gender-F_age-21	attractiveness	-0.10750000000000004	0.501
id-1266_gender-M_age-21	2	4	2	2	25	id-1266_gender-M_age-21	attractiveness	0.14500000000000002	0.618
id-1376_gender-F_age-19	2	4	2	2	26	id-1376_gender-F_age-19	attractiveness	0.5074999999999998	1.185
id-1344_gender-M_age-25	2	4	2	2	27	id-1344_gender-M_age-25	attractiveness	-0.6675	0.826
id-1342_gender-M_age-19	2	4	2	2	28	id-1342_gender-M_age-19	attractiveness	-0.81	1.185
id-1294_gender-F_age-26	2	4	2	2	29	id-1294_gender-F_age-26	attractiveness	-0.255	0.718
id-1341_gender-M_age-19	2	4	2	2	30	id-1341_gender-M_age-19	attractiveness	0.345	0.484
id-1361_gender-F_age-19	2	4	2	2	31	id-1361_gender-F_age-19	attractiveness	0.2749999999999999	0.943
id-1354_gender-F_age-23	2	4	2	2	32	id-1354_gender-F_age-23	attractiveness	-0.6225	0.7759999999999999
id-1273_gender-F_age-20	2	4	2	2	33	id-1273_gender-F_age-20	attractiveness	0.4624999999999999	0.843
id-1339_gender-F_age-30	2	4	2	2	34	id-1339_gender-F_age-30	attractiveness	-0.030000000000000027	0.601
id-1297_gender-F_age-22	2	4	2	2	35	id-1297_gender-F_age-22	attractiveness	0.10499999999999998	0.484
id-1270_gender-F_age-30	2	4	2	2	36	id-1270_gender-F_age-30	attractiveness	-0.09750000000000003	0.551
id-1311_gender-F_age-22	2	4	2	2	37	id-1311_gender-F_age-22	attractiveness	0.14500000000000002	0.593
id-1367_gender-M_age-20	2	4	2	2	38	id-1367_gender-M_age-20	attractiveness	0.27	1.035
id-1309_gender-M_age-22	2	4	2	2	39	id-1309_gender-M_age-22	attractiveness	-0.22750000000000004	0.684
id-1293_gender-F_age-31	2	4	2	2	40	id-1293_gender-F_age-31	attractiveness	-0.43500000000000005	0.743
id-1363_gender-M_age-19	2	4	2	2	41	id-1363_gender-M_age-19	attractiveness	-0.30500000000000005	0.5760000000000001
id-1335_gender-M_age-23	2	4	2	2	42	id-1335_gender-M_age-23	attractiveness	-0.15500000000000003	0.484
id-1378_gender-F_age-19	2	4	2	2	43	id-1378_gender-F_age-19	attractiveness	0.345	0.5429999999999999
id-1280_gender-M_age-18	2	4	2	2	44	id-1280_gender-M_age-18	attractiveness	-0.44499999999999995	0.7340000000000001
id-1318_gender-M_age-35	2	4	2	2	45	id-1318_gender-M_age-35	attractiveness	-0.11499999999999999	0.593
id-1345_gender-M_age-18	2	4	2	2	46	id-1345_gender-M_age-18	attractiveness	0.37749999999999995	1.31
id-1347_gender-F_age-27	2	4	2	2	47	id-1347_gender-F_age-27	attractiveness	-0.555	0.851
id-1289_gender-F_age-20	2	4	2	2	48	id-1289_gender-F_age-20	attractiveness	0.05249999999999999	0.6509999999999999
id-1355_gender-F_age-19	2	4	2	2	49	id-1355_gender-F_age-19	attractiveness	-0.16000000000000003	0.509
id-1285_gender-F_age-19	2	4	2	2	50	id-1285_gender-F_age-19	attractiveness	0.20500000000000007	0.46799999999999997
id-1363_gender-M_age-19	2	4	2	3	1	id-1363_gender-M_age-19	dominance	-0.17000000000000004	0.868
id-1318_gender-M_age-35	2	4	2	3	2	id-1318_gender-M_age-35	dominance	0.5275000000000001	0.601
id-1294_gender-F_age-26	2	4	2	3	3	id-1294_gender-F_age-26	dominance	-0.18000000000000005	0.493
id-1358_gender-F_age-32	2	4	2	3	4	id-1358_gender-F_age-32	dominance	-0.3325	3.593
id-1309_gender-M_age-22	2	4	2	3	5	id-1309_gender-M_age-22	dominance	0.3474999999999999	1.4180000000000001
id-1280_gender-M_age-18	2	4	2	3	6	id-1280_gender-M_age-18	dominance	-0.265	3.5180000000000002
id-1307_gender-F_age-22	2	4	2	3	7	id-1307_gender-F_age-22	dominance	-0.06000000000000005	0.426
id-1310_gender-F_age-28	2	4	2	3	8	id-1310_gender-F_age-28	dominance	0.81	0.526
id-1339_gender-F_age-30	2	4	2	3	9	id-1339_gender-F_age-30	dominance	-0.4724999999999999	0.568
id-1344_gender-M_age-25	2	4	2	3	10	id-1344_gender-M_age-25	dominance	0.6575	0.518
id-1297_gender-F_age-22	2	4	2	3	11	id-1297_gender-F_age-22	dominance	0.2024999999999999	0.634
id-1341_gender-M_age-19	2	4	2	3	12	id-1341_gender-M_age-19	dominance	-0.07250000000000001	0.434
id-1354_gender-F_age-23	2	4	2	3	13	id-1354_gender-F_age-23	dominance	-0.4724999999999999	0.693
id-1295_gender-F_age-26	2	4	2	3	14	id-1295_gender-F_age-26	dominance	0.3500000000000001	0.5760000000000001
id-1342_gender-M_age-19	2	4	2	3	15	id-1342_gender-M_age-19	dominance	0.6324999999999998	1.101
id-1378_gender-F_age-19	2	4	2	3	16	id-1378_gender-F_age-19	dominance	-0.6325	0.884
id-1306_gender-F_age-21	2	4	2	3	17	id-1306_gender-F_age-21	dominance	0.08250000000000002	0.726
id-1270_gender-F_age-30	2	4	2	3	18	id-1270_gender-F_age-30	dominance	0.2450000000000001	0.934
id-1273_gender-F_age-20	2	4	2	3	19	id-1273_gender-F_age-20	dominance	-0.27	0.634
id-1264_gender-F_age-26	2	4	2	3	20	id-1264_gender-F_age-26	dominance	-0.3125	1.376
id-1296_gender-F_age-23	2	4	2	3	21	id-1296_gender-F_age-23	dominance	-0.25249999999999995	0.593
id-1377_gender-M_age-20	2	4	2	3	22	id-1377_gender-M_age-20	dominance	0.595	0.8759999999999999
id-1279_gender-F_age-19	2	4	2	3	23	id-1279_gender-F_age-19	dominance	-0.7575	1.935
id-1361_gender-F_age-19	2	4	2	3	24	id-1361_gender-F_age-19	dominance	0.45500000000000007	1.318
id-1269_gender-F_age-23	2	4	2	3	25	id-1269_gender-F_age-23	dominance	0.4424999999999999	1.5759999999999998
id-1373_gender-F_age-30	2	4	2	3	26	id-1373_gender-F_age-30	dominance	-0.19999999999999996	0.843
id-1347_gender-F_age-27	2	4	2	3	27	id-1347_gender-F_age-27	dominance	-0.6425000000000001	0.5760000000000001
id-1315_gender-M_age-16	2	4	2	3	28	id-1315_gender-M_age-16	dominance	0.8199999999999998	1.551
id-1289_gender-F_age-20	2	4	2	3	29	id-1289_gender-F_age-20	dominance	-0.255	1.193
id-1323_gender-F_age-23	2	4	2	3	30	id-1323_gender-F_age-23	dominance	0.28	0.5429999999999999
id-1376_gender-F_age-19	2	4	2	3	31	id-1376_gender-F_age-19	dominance	-0.3425	0.8340000000000001
id-1311_gender-F_age-22	2	4	2	3	32	id-1311_gender-F_age-22	dominance	-0.4375	0.593
id-1366_gender-F_age-24	2	4	2	3	33	id-1366_gender-F_age-24	dominance	-0.41500000000000004	1.2009999999999998
id-1293_gender-F_age-31	2	4	2	3	34	id-1293_gender-F_age-31	dominance	-0.3075	0.7509999999999999
id-1302_gender-F_age-30	2	4	2	3	35	id-1302_gender-F_age-30	dominance	-0.25249999999999995	0.851
id-1291_gender-F_age-24	2	4	2	3	36	id-1291_gender-F_age-24	dominance	0.2749999999999999	0.6509999999999999
id-1345_gender-M_age-18	2	4	2	3	37	id-1345_gender-M_age-18	dominance	0.41500000000000004	0.7190000000000001
id-1290_gender-F_age-23	2	4	2	3	38	id-1290_gender-F_age-23	dominance	0.5550000000000002	1.11
id-1355_gender-F_age-19	2	4	2	3	39	id-1355_gender-F_age-19	dominance	-0.5075	0.7929999999999999
id-1266_gender-M_age-21	2	4	2	3	40	id-1266_gender-M_age-21	dominance	0.565	1.251
id-1380_gender-F_age-21	2	4	2	3	41	id-1380_gender-F_age-21	dominance	0.2124999999999999	0.551
id-1335_gender-M_age-23	2	4	2	3	42	id-1335_gender-M_age-23	dominance	-0.2025	0.677
id-1370_gender-M_age-19	2	4	2	3	43	id-1370_gender-M_age-19	dominance	-0.08499999999999996	0.784
id-1274_gender-F_age-33	2	4	2	3	44	id-1274_gender-F_age-33	dominance	0.345	0.91
id-1285_gender-F_age-19	2	4	2	3	45	id-1285_gender-F_age-19	dominance	-0.5475	1.368
id-1362_gender-F_age-24	2	4	2	3	46	id-1362_gender-F_age-24	dominance	-0.22999999999999998	1.676
id-1356_gender-F_age-20	2	4	2	3	47	id-1356_gender-F_age-20	dominance	-0.33499999999999996	0.693
id-1367_gender-M_age-20	2	4	2	3	48	id-1367_gender-M_age-20	dominance	0.2250000000000001	1.168
id-1260_gender-F_age-22	2	4	2	3	49	id-1260_gender-F_age-22	dominance	-0.24750000000000005	0.5429999999999999
id-1360_gender-F_age-20	2	4	2	3	50	id-1360_gender-F_age-20	dominance	-0.22499999999999998	0.76
id-1294_gender-F_age-26	2	4	2	6	1	id-1294_gender-F_age-26	arousal	0.5747297898678234	3.252469247787303
id-1294_gender-F_age-26	2	4	2	6	1	id-1294_gender-F_age-26	valence	0.22283064615132792	3.252469247787303
id-1269_gender-F_age-23	2	4	2	6	2	id-1269_gender-F_age-23	arousal	0.5638600022506854	1.7951075976561697
id-1269_gender-F_age-23	2	4	2	6	2	id-1269_gender-F_age-23	valence	-0.17935149568277614	1.7951075976561697
id-1274_gender-F_age-33	2	4	2	6	3	id-1274_gender-F_age-33	arousal	0.6250025575970863	0.6270632153391489
id-1274_gender-F_age-33	2	4	2	6	3	id-1274_gender-F_age-33	valence	-0.4891404427712077	0.6270632153391489
id-1315_gender-M_age-16	2	4	2	6	4	id-1315_gender-M_age-16	arousal	0.6535357500920735	0.4436716290601908
id-1315_gender-M_age-16	2	4	2	6	4	id-1315_gender-M_age-16	valence	0.28533192494987114	0.4436716290601908
id-1289_gender-F_age-20	2	4	2	6	5	id-1289_gender-F_age-20	arousal	0.5597838318942587	0.8862457140385231
id-1289_gender-F_age-20	2	4	2	6	5	id-1289_gender-F_age-20	valence	0.5081625711011989	0.8862457140385231
id-1264_gender-F_age-26	2	4	2	6	6	id-1264_gender-F_age-26	arousal	0.5842408540328191	1.1605737776917522
id-1264_gender-F_age-26	2	4	2	6	6	id-1264_gender-F_age-26	valence	0.32337618160985393	1.1605737776917522
id-1373_gender-F_age-30	2	4	2	6	7	id-1373_gender-F_age-30	arousal	0.2839629711093833	1.3519020324183657
id-1373_gender-F_age-30	2	4	2	6	7	id-1373_gender-F_age-30	valence	-0.03532680975569833	1.3519020324183657
id-1360_gender-F_age-20	2	4	2	6	8	id-1360_gender-F_age-20	arousal	0.31521361050865493	1.3605133463606762
id-1360_gender-F_age-20	2	4	2	6	8	id-1360_gender-F_age-20	valence	0.09239319474567256	1.3605133463606762
id-1378_gender-F_age-19	2	4	2	6	9	id-1378_gender-F_age-19	arousal	0.5692948960592544	0.993784507663804
id-1378_gender-F_age-19	2	4	2	6	9	id-1378_gender-F_age-19	valence	0.864148115562467	0.993784507663804
id-1280_gender-M_age-18	2	4	2	6	10	id-1280_gender-M_age-18	arousal	0.7187544757949011	1.2771890435142268
id-1280_gender-M_age-18	2	4	2	6	10	id-1280_gender-M_age-18	valence	-0.7282757703482424	1.2771890435142268
id-1380_gender-F_age-21	2	4	2	6	11	id-1380_gender-F_age-21	arousal	0.6725578784220649	0.9187150282323272
id-1380_gender-F_age-21	2	4	2	6	11	id-1380_gender-F_age-21	valence	0.4809881020583541	0.9187150282323272
id-1291_gender-F_age-24	2	4	2	6	12	id-1291_gender-F_age-24	arousal	0.6426659624749356	1.5520894238834444
id-1291_gender-F_age-24	2	4	2	6	12	id-1291_gender-F_age-24	valence	0.1875038363956296	1.5520894238834444
id-1306_gender-F_age-21	2	4	2	6	13	id-1306_gender-F_age-21	arousal	0.6385897921185089	1.2020431948203625
id-1306_gender-F_age-21	2	4	2	6	13	id-1306_gender-F_age-21	valence	-0.07608851331996565	1.2020431948203625
id-1362_gender-F_age-24	2	4	2	6	14	id-1362_gender-F_age-24	arousal	0.5991868120063838	1.3103402477208874
id-1362_gender-F_age-24	2	4	2	6	14	id-1362_gender-F_age-24	valence	0.3043540532798626	1.3103402477208874
id-1266_gender-M_age-21	2	4	2	6	15	id-1266_gender-M_age-21	arousal	0.6086978761713795	0.8353315618478518
id-1266_gender-M_age-21	2	4	2	6	15	id-1266_gender-M_age-21	valence	-0.2527225620984573	0.8353315618478518
id-1342_gender-M_age-19	2	4	2	6	16	id-1342_gender-M_age-19	arousal	0.6698404315177804	0.9019412584511884
id-1342_gender-M_age-19	2	4	2	6	16	id-1342_gender-M_age-19	valence	-0.6141430003682941	0.9019412584511884
id-1260_gender-F_age-22	2	4	2	6	17	id-1260_gender-F_age-22	arousal	0.3913021238286205	0.3602510345317569
id-1260_gender-F_age-22	2	4	2	6	17	id-1260_gender-F_age-22	valence	0.5054451241969146	0.3602510345317569
id-1309_gender-M_age-22	2	4	2	6	18	id-1309_gender-M_age-22	arousal	0.38858467692433607	1.2687558239103964
id-1309_gender-M_age-22	2	4	2	6	18	id-1309_gender-M_age-22	valence	-0.0407617035642673	1.2687558239103964
id-1297_gender-F_age-22	2	4	2	6	19	id-1297_gender-F_age-22	arousal	0.6481008562835046	1.0937391992574703
id-1297_gender-F_age-22	2	4	2	6	19	id-1297_gender-F_age-22	valence	-0.11685021688423293	1.0937391992574703
id-1310_gender-F_age-28	2	4	2	6	20	id-1310_gender-F_age-28	arousal	0.6481008562835046	0.5602974598004948
id-1310_gender-F_age-28	2	4	2	6	20	id-1310_gender-F_age-28	valence	-0.2744621373327332	0.5602974598004948
id-1295_gender-F_age-26	2	4	2	6	21	id-1295_gender-F_age-26	arousal	0.4755429778614396	0.6852940262033371
id-1295_gender-F_age-26	2	4	2	6	21	id-1295_gender-F_age-26	valence	-0.03804425665998282	0.6852940262033371
id-1335_gender-M_age-23	2	4	2	6	22	id-1335_gender-M_age-23	arousal	0.6467421328313623	4.3857191283277634
id-1335_gender-M_age-23	2	4	2	6	22	id-1335_gender-M_age-23	valence	0.6331651286982856	4.3857191283277634
id-1323_gender-F_age-23	2	4	2	6	23	id-1323_gender-F_age-23	arousal	0.6997323474649098	1.095076416055235
id-1323_gender-F_age-23	2	4	2	6	23	id-1323_gender-F_age-23	valence	-0.07337106641568114	1.095076416055235
id-1296_gender-F_age-23	2	4	2	6	24	id-1296_gender-F_age-23	arousal	0.6807102191349184	3.6106800456764176
id-1296_gender-F_age-23	2	4	2	6	24	id-1296_gender-F_age-23	valence	-0.21467830543847446	3.6106800456764176
id-1285_gender-F_age-19	2	4	2	6	25	id-1285_gender-F_age-19	arousal	0.6630468142570692	0.7937251026378362
id-1285_gender-F_age-19	2	4	2	6	25	id-1285_gender-F_age-19	valence	0.3288110754184229	0.7937251026378362
id-1361_gender-F_age-19	2	4	2	6	26	id-1361_gender-F_age-19	arousal	0.5883170243892458	0.6353213591555686
id-1361_gender-F_age-19	2	4	2	6	26	id-1361_gender-F_age-19	valence	0.4429438453983714	0.6353213591555686
id-1363_gender-M_age-19	2	4	2	6	27	id-1363_gender-M_age-19	arousal	0.5991868120063838	1.9522897347324035
id-1363_gender-M_age-19	2	4	2	6	27	id-1363_gender-M_age-19	valence	0.029891915947129363	1.9522897347324035
id-1354_gender-F_age-23	2	4	2	6	28	id-1354_gender-F_age-23	arousal	0.6752753253263495	0.9686348706891296
id-1354_gender-F_age-23	2	4	2	6	28	id-1354_gender-F_age-23	valence	-0.5190323587183371	0.9686348706891296
id-1370_gender-M_age-19	2	4	2	6	29	id-1370_gender-M_age-19	arousal	0.650818303187789	2.7022923759614055
id-1370_gender-M_age-19	2	4	2	6	29	id-1370_gender-M_age-19	valence	0.6739268322625528	2.7022923759614055
id-1366_gender-F_age-24	2	4	2	6	30	id-1366_gender-F_age-24	arousal	0.650818303187789	3.285762625606367
id-1366_gender-F_age-24	2	4	2	6	30	id-1366_gender-F_age-24	valence	0.3641378851741212	3.285762625606367
id-1356_gender-F_age-20	2	4	2	6	31	id-1356_gender-F_age-20	arousal	0.30977871670008594	1.6190332737569406
id-1356_gender-F_age-20	2	4	2	6	31	id-1356_gender-F_age-20	valence	0.44566129230265583	1.6190332737569406
id-1345_gender-M_age-18	2	4	2	6	32	id-1345_gender-M_age-18	arousal	0.24455999099725823	0.9023065027668054
id-1345_gender-M_age-18	2	4	2	6	32	id-1345_gender-M_age-18	valence	0.7174059827311046	0.9023065027668054
id-1367_gender-M_age-20	2	4	2	6	33	id-1367_gender-M_age-20	arousal	0.3749974424029136	1.1104039994552295
id-1367_gender-M_age-20	2	4	2	6	33	id-1367_gender-M_age-20	valence	0.5299021463354749	1.1104039994552295
id-1302_gender-F_age-30	2	4	2	6	34	id-1302_gender-F_age-30	arousal	0.5625012787985432	0.43529455444877385
id-1302_gender-F_age-30	2	4	2	6	34	id-1302_gender-F_age-30	valence	-0.2798970311413021	0.43529455444877385
id-1318_gender-M_age-35	2	4	2	6	35	id-1318_gender-M_age-35	arousal	0.7214719226991857	0.8686982903855096
id-1318_gender-M_age-35	2	4	2	6	35	id-1318_gender-M_age-35	valence	-0.41305192945124203	0.8686982903855096
id-1311_gender-F_age-22	2	4	2	6	36	id-1311_gender-F_age-22	arousal	0.6263612810492286	1.2021026602160418
id-1311_gender-F_age-22	2	4	2	6	36	id-1311_gender-F_age-22	valence	0.4809881020583541	1.2021026602160418
id-1344_gender-M_age-25	2	4	2	6	37	id-1344_gender-M_age-25	arousal	0.2703757365879609	0.9103159182213858
id-1344_gender-M_age-25	2	4	2	6	37	id-1344_gender-M_age-25	valence	-0.7337106641568115	0.9103159182213858
id-1273_gender-F_age-20	2	4	2	6	38	id-1273_gender-F_age-20	arousal	0.7364178806727504	0.8852390282572742
id-1273_gender-F_age-20	2	4	2	6	38	id-1273_gender-F_age-20	valence	0.6875140667839752	0.8852390282572742
id-1279_gender-F_age-19	2	4	2	6	39	id-1279_gender-F_age-19	arousal	0.42934638048860335	0.7197779193811584
id-1279_gender-F_age-19	2	4	2	6	39	id-1279_gender-F_age-19	valence	0.7418630048696649	0.7197779193811584
id-1358_gender-F_age-32	2	4	2	6	40	id-1358_gender-F_age-32	arousal	0.29619148217866353	0.6686349612464255
id-1358_gender-F_age-32	2	4	2	6	40	id-1358_gender-F_age-32	valence	0.5570766153783199	0.6686349612464255
id-1376_gender-F_age-19	2	4	2	6	41	id-1376_gender-F_age-19	arousal	0.5529902146335475	1.9439057174604384
id-1376_gender-F_age-19	2	4	2	6	41	id-1376_gender-F_age-19	valence	0.8831702438924582	1.9439057174604384
id-1341_gender-M_age-19	2	4	2	6	42	id-1341_gender-M_age-19	arousal	0.5883170243892458	1.4853451000362838
id-1341_gender-M_age-19	2	4	2	6	42	id-1341_gender-M_age-19	valence	0.6766442791668373	1.4853451000362838
id-1307_gender-F_age-22	2	4	2	6	43	id-1307_gender-F_age-22	arousal	0.5706536195113967	0.5102511401801166
id-1307_gender-F_age-22	2	4	2	6	43	id-1307_gender-F_age-22	valence	-0.21196085853419	0.5102511401801166
id-1339_gender-F_age-30	2	4	2	6	44	id-1339_gender-F_age-30	arousal	0.6059804292670949	1.2937460815483064
id-1339_gender-F_age-30	2	4	2	6	44	id-1339_gender-F_age-30	valence	0.40489958873838855	1.2937460815483064
id-1270_gender-F_age-30	2	4	2	6	45	id-1270_gender-F_age-30	arousal	0.41711786941932316	0.53547442972922
id-1270_gender-F_age-30	2	4	2	6	45	id-1270_gender-F_age-30	valence	0.3423983099398454	0.53547442972922
id-1290_gender-F_age-23	2	4	2	6	46	id-1290_gender-F_age-23	arousal	0.6385897921185089	0.5686537064302684
id-1290_gender-F_age-23	2	4	2	6	46	id-1290_gender-F_age-23	valence	0.23098298686418134	0.5686537064302684
id-1293_gender-F_age-31	2	4	2	6	47	id-1293_gender-F_age-31	arousal	0.5815234071285346	5.460986020802012
id-1293_gender-F_age-31	2	4	2	6	47	id-1293_gender-F_age-31	valence	-0.1630468142570692	5.460986020802012
id-1347_gender-F_age-27	2	4	2	6	48	id-1347_gender-F_age-27	arousal	0.7323417103163237	1.3853979548130155
id-1347_gender-F_age-27	2	4	2	6	48	id-1347_gender-F_age-27	valence	-0.5081625711011989	1.3853979548130155
id-1377_gender-M_age-20	2	4	2	6	49	id-1377_gender-M_age-20	arousal	0.2499948848058272	0.9770765422290424
id-1377_gender-M_age-20	2	4	2	6	49	id-1377_gender-M_age-20	valence	0.8505608810410444	0.9770765422290424
id-1355_gender-F_age-19	2	4	2	6	50	id-1355_gender-F_age-19	arousal	0.6834276660392029	0.9854210165194672
id-1355_gender-F_age-19	2	4	2	6	50	id-1355_gender-F_age-19	valence	-0.5652289560911733	0.9854210165194672
id-1366_gender-F_age-24	2	4	2	7	1	id-1366_gender-F_age-24	trustworthiness	-0.27249999999999996	0.735
id-1274_gender-F_age-33	2	4	2	7	2	id-1274_gender-F_age-33	trustworthiness	-0.6325	0.6759999999999999
id-1378_gender-F_age-19	2	4	2	7	3	id-1378_gender-F_age-19	trustworthiness	0.69	0.8009999999999999
id-1310_gender-F_age-28	2	4	2	7	4	id-1310_gender-F_age-28	trustworthiness	-0.43000000000000005	0.768
id-1370_gender-M_age-19	2	4	2	7	5	id-1370_gender-M_age-19	trustworthiness	0.4850000000000001	0.8759999999999999
id-1309_gender-M_age-22	2	4	2	7	6	id-1309_gender-M_age-22	trustworthiness	-0.275	0.526
id-1362_gender-F_age-24	2	4	2	7	7	id-1362_gender-F_age-24	trustworthiness	-0.12749999999999995	0.659
id-1360_gender-F_age-20	2	4	2	7	8	id-1360_gender-F_age-20	trustworthiness	0.10000000000000009	0.409
id-1293_gender-F_age-31	2	4	2	7	9	id-1293_gender-F_age-31	trustworthiness	-0.365	0.785
id-1355_gender-F_age-19	2	4	2	7	10	id-1355_gender-F_age-19	trustworthiness	0.09499999999999997	0.768
id-1354_gender-F_age-23	2	4	2	7	11	id-1354_gender-F_age-23	trustworthiness	-0.3175	0.809
id-1306_gender-F_age-21	2	4	2	7	12	id-1306_gender-F_age-21	trustworthiness	0.10499999999999998	0.434
id-1291_gender-F_age-24	2	4	2	7	13	id-1291_gender-F_age-24	trustworthiness	-0.1775	1.126
id-1363_gender-M_age-19	2	4	2	7	14	id-1363_gender-M_age-19	trustworthiness	0.26750000000000007	0.535
id-1361_gender-F_age-19	2	4	2	7	15	id-1361_gender-F_age-19	trustworthiness	0.43500000000000005	0.726
id-1294_gender-F_age-26	2	4	2	7	16	id-1294_gender-F_age-26	trustworthiness	0.0674999999999999	0.9179999999999999
id-1270_gender-F_age-30	2	4	2	7	17	id-1270_gender-F_age-30	trustworthiness	-0.2025	1.0090000000000001
id-1280_gender-M_age-18	2	4	2	7	18	id-1280_gender-M_age-18	trustworthiness	-0.61	0.693
id-1318_gender-M_age-35	2	4	2	7	19	id-1318_gender-M_age-35	trustworthiness	-0.63	1.276
id-1380_gender-F_age-21	2	4	2	7	20	id-1380_gender-F_age-21	trustworthiness	0.12250000000000005	1.026
id-1289_gender-F_age-20	2	4	2	7	21	id-1289_gender-F_age-20	trustworthiness	0.2975000000000001	2.218
id-1347_gender-F_age-27	2	4	2	7	22	id-1347_gender-F_age-27	trustworthiness	-0.37250000000000005	0.5760000000000001
id-1315_gender-M_age-16	2	4	2	7	23	id-1315_gender-M_age-16	trustworthiness	-0.5425	0.643
id-1376_gender-F_age-19	2	4	2	7	24	id-1376_gender-F_age-19	trustworthiness	0.6375	0.5760000000000001
id-1295_gender-F_age-26	2	4	2	7	25	id-1295_gender-F_age-26	trustworthiness	-0.30500000000000005	0.401
id-1273_gender-F_age-20	2	4	2	7	26	id-1273_gender-F_age-20	trustworthiness	0.24750000000000005	0.493
id-1345_gender-M_age-18	2	4	2	7	27	id-1345_gender-M_age-18	trustworthiness	-0.2025	0.634
id-1341_gender-M_age-19	2	4	2	7	28	id-1341_gender-M_age-19	trustworthiness	0.4075	0.584
id-1356_gender-F_age-20	2	4	2	7	29	id-1356_gender-F_age-20	trustworthiness	0.4750000000000001	0.7929999999999999
id-1279_gender-F_age-19	2	4	2	7	30	id-1279_gender-F_age-19	trustworthiness	0.585	0.618
id-1266_gender-M_age-21	2	4	2	7	31	id-1266_gender-M_age-21	trustworthiness	-0.18500000000000005	0.434
id-1297_gender-F_age-22	2	4	2	7	32	id-1297_gender-F_age-22	trustworthiness	-0.27249999999999996	0.818
id-1342_gender-M_age-19	2	4	2	7	33	id-1342_gender-M_age-19	trustworthiness	-0.765	0.71
id-1339_gender-F_age-30	2	4	2	7	34	id-1339_gender-F_age-30	trustworthiness	0.5125	0.718
id-1367_gender-M_age-20	2	4	2	7	35	id-1367_gender-M_age-20	trustworthiness	-0.2925	0.527
id-1358_gender-F_age-32	2	4	2	7	36	id-1358_gender-F_age-32	trustworthiness	0.17999999999999994	0.634
id-1296_gender-F_age-23	2	4	2	7	37	id-1296_gender-F_age-23	trustworthiness	0.07000000000000006	0.701
id-1260_gender-F_age-22	2	4	2	7	38	id-1260_gender-F_age-22	trustworthiness	0.2250000000000001	0.6509999999999999
id-1269_gender-F_age-23	2	4	2	7	39	id-1269_gender-F_age-23	trustworthiness	-0.31999999999999995	1.9509999999999998
id-1377_gender-M_age-20	2	4	2	7	40	id-1377_gender-M_age-20	trustworthiness	0.5874999999999999	1.21
id-1307_gender-F_age-22	2	4	2	7	41	id-1307_gender-F_age-22	trustworthiness	-0.1875	0.584
id-1323_gender-F_age-23	2	4	2	7	42	id-1323_gender-F_age-23	trustworthiness	-0.31000000000000005	1.0759999999999998
id-1302_gender-F_age-30	2	4	2	7	43	id-1302_gender-F_age-30	trustworthiness	-0.06499999999999995	0.451
id-1311_gender-F_age-22	2	4	2	7	44	id-1311_gender-F_age-22	trustworthiness	0.1775	0.39299999999999996
id-1285_gender-F_age-19	2	4	2	7	45	id-1285_gender-F_age-19	trustworthiness	0.1625000000000001	0.34299999999999997
id-1344_gender-M_age-25	2	4	2	7	46	id-1344_gender-M_age-25	trustworthiness	-0.69	0.701
id-1335_gender-M_age-23	2	4	2	7	47	id-1335_gender-M_age-23	trustworthiness	0.39250000000000007	0.784
id-1264_gender-F_age-26	2	4	2	7	48	id-1264_gender-F_age-26	trustworthiness	0.4525000000000001	0.618
id-1373_gender-F_age-30	2	4	2	7	49	id-1373_gender-F_age-30	trustworthiness	-0.31000000000000005	0.826
id-1290_gender-F_age-23	2	4	2	7	50	id-1290_gender-F_age-23	trustworthiness	-0.08499999999999996	0.693
