	rep	session	run	block	trial	trial_type	rating_type	rating	rating_RT
id-1376_gender-F_age-19	1	4	1	1	1	id-1376_gender-F_age-19	dominance	0.0	1.035
id-1361_gender-F_age-19	1	4	1	1	2	id-1361_gender-F_age-19	dominance	0.11250000000000004	3.6430000000000002
id-1323_gender-F_age-23	1	4	1	1	3	id-1323_gender-F_age-23	dominance	-0.25749999999999995	2.826
id-1339_gender-F_age-30	1	4	1	1	4	id-1339_gender-F_age-30	dominance	-0.5775	0.909
id-1341_gender-M_age-19	1	4	1	1	5	id-1341_gender-M_age-19	dominance	0.6225	0.951
id-1344_gender-M_age-25	1	4	1	1	6	id-1344_gender-M_age-25	dominance	0.7324999999999999	1.935
id-1347_gender-F_age-27	1	4	1	1	7	id-1347_gender-F_age-27	dominance	0.09250000000000003	1.526
id-1302_gender-F_age-30	1	4	1	1	8	id-1302_gender-F_age-30	dominance	0.25750000000000006	0.884
id-1377_gender-M_age-20	1	4	1	1	9	id-1377_gender-M_age-20	dominance	0.4724999999999999	1.1179999999999999
id-1380_gender-F_age-21	1	4	1	1	10	id-1380_gender-F_age-21	dominance	0.0	0.309
id-1296_gender-F_age-23	1	4	1	1	11	id-1296_gender-F_age-23	dominance	0.1625000000000001	0.91
id-1345_gender-M_age-18	1	4	1	1	12	id-1345_gender-M_age-18	dominance	0.21999999999999997	0.91
id-1342_gender-M_age-19	1	4	1	1	13	id-1342_gender-M_age-19	dominance	0.47	1.4509999999999998
id-1309_gender-M_age-22	1	4	1	1	14	id-1309_gender-M_age-22	dominance	0.3274999999999999	1.085
id-1260_gender-F_age-22	1	4	1	1	15	id-1260_gender-F_age-22	dominance	-0.5475	1.7009999999999998
id-1358_gender-F_age-32	1	4	1	1	16	id-1358_gender-F_age-32	dominance	0.0024999999999999467	0.35100000000000003
id-1264_gender-F_age-26	1	4	1	1	17	id-1264_gender-F_age-26	dominance	-0.82	1.235
id-1280_gender-M_age-18	1	4	1	1	18	id-1280_gender-M_age-18	dominance	-0.16749999999999998	0.743
id-1289_gender-F_age-20	1	4	1	1	19	id-1289_gender-F_age-20	dominance	-0.21999999999999997	0.818
id-1285_gender-F_age-19	1	4	1	1	20	id-1285_gender-F_age-19	dominance	0.0	0.309
id-1378_gender-F_age-19	1	4	1	1	21	id-1378_gender-F_age-19	dominance	-0.22999999999999998	1.2009999999999998
id-1297_gender-F_age-22	1	4	1	1	22	id-1297_gender-F_age-22	dominance	0.2749999999999999	1.0759999999999998
id-1354_gender-F_age-23	1	4	1	1	23	id-1354_gender-F_age-23	dominance	0.07250000000000001	0.86
id-1360_gender-F_age-20	1	4	1	1	24	id-1360_gender-F_age-20	dominance	-0.14500000000000002	1.01
id-1366_gender-F_age-24	1	4	1	1	25	id-1366_gender-F_age-24	dominance	-0.20750000000000002	0.8340000000000001
id-1290_gender-F_age-23	1	4	1	1	26	id-1290_gender-F_age-23	dominance	0.4225000000000001	0.76
id-1291_gender-F_age-24	1	4	1	1	27	id-1291_gender-F_age-24	dominance	0.15999999999999992	0.809
id-1356_gender-F_age-20	1	4	1	1	28	id-1356_gender-F_age-20	dominance	-0.27	0.626
id-1362_gender-F_age-24	1	4	1	1	29	id-1362_gender-F_age-24	dominance	-0.19499999999999995	0.784
id-1307_gender-F_age-22	1	4	1	1	30	id-1307_gender-F_age-22	dominance	0.0	0.309
id-1311_gender-F_age-22	1	4	1	1	31	id-1311_gender-F_age-22	dominance	-0.5775	1.093
id-1355_gender-F_age-19	1	4	1	1	32	id-1355_gender-F_age-19	dominance	-0.43999999999999995	1.1179999999999999
id-1367_gender-M_age-20	1	4	1	1	33	id-1367_gender-M_age-20	dominance	0.5150000000000001	1.385
id-1315_gender-M_age-16	1	4	1	1	34	id-1315_gender-M_age-16	dominance	0.56	0.893
id-1306_gender-F_age-21	1	4	1	1	35	id-1306_gender-F_age-21	dominance	0.27249999999999996	2.0669999999999997
id-1269_gender-F_age-23	1	4	1	1	36	id-1269_gender-F_age-23	dominance	0.2749999999999999	0.6759999999999999
id-1270_gender-F_age-30	1	4	1	1	37	id-1270_gender-F_age-30	dominance	-0.0050000000000000044	0.309
id-1279_gender-F_age-19	1	4	1	1	38	id-1279_gender-F_age-19	dominance	-0.615	0.9179999999999999
id-1293_gender-F_age-31	1	4	1	1	39	id-1293_gender-F_age-31	dominance	-0.13	0.818
id-1373_gender-F_age-30	1	4	1	1	40	id-1373_gender-F_age-30	dominance	-0.1725	1.81
id-1363_gender-M_age-19	1	4	1	1	41	id-1363_gender-M_age-19	dominance	-0.25249999999999995	1.476
id-1335_gender-M_age-23	1	4	1	1	42	id-1335_gender-M_age-23	dominance	-0.1975	0.584
id-1294_gender-F_age-26	1	4	1	1	43	id-1294_gender-F_age-26	dominance	-0.37749999999999995	0.601
id-1295_gender-F_age-26	1	4	1	1	44	id-1295_gender-F_age-26	dominance	0.5125	0.951
id-1318_gender-M_age-35	1	4	1	1	45	id-1318_gender-M_age-35	dominance	0.4075	0.943
id-1274_gender-F_age-33	1	4	1	1	46	id-1274_gender-F_age-33	dominance	0.4025000000000001	0.659
id-1273_gender-F_age-20	1	4	1	1	47	id-1273_gender-F_age-20	dominance	0.17999999999999994	0.718
id-1370_gender-M_age-19	1	4	1	1	48	id-1370_gender-M_age-19	dominance	-0.0050000000000000044	0.301
id-1310_gender-F_age-28	1	4	1	1	49	id-1310_gender-F_age-28	dominance	0.4125000000000001	0.718
id-1266_gender-M_age-21	1	4	1	1	50	id-1266_gender-M_age-21	dominance	0.4525000000000001	0.626
id-1270_gender-F_age-30	1	4	1	2	1	id-1270_gender-F_age-30	arousal	0.394019570732905	7.619683226570487
id-1270_gender-F_age-30	1	4	1	2	1	id-1270_gender-F_age-30	valence	-0.2500051151941728	7.619683226570487
id-1377_gender-M_age-20	1	4	1	2	2	id-1377_gender-M_age-20	arousal	0.38858467692433607	1.4187197634910262
id-1377_gender-M_age-20	1	4	1	2	2	id-1377_gender-M_age-20	valence	-0.11141532307566396	1.4187197634910262
id-1307_gender-F_age-22	1	4	1	2	3	id-1307_gender-F_age-22	arousal	0.41711786941932316	0.7936112840925489
id-1307_gender-F_age-22	1	4	1	2	3	id-1307_gender-F_age-22	valence	0.00815234071285346	0.7936112840925489
id-1273_gender-F_age-20	1	4	1	2	4	id-1273_gender-F_age-20	arousal	0.3736387189507714	0.8187057573850325
id-1273_gender-F_age-20	1	4	1	2	4	id-1273_gender-F_age-20	valence	0.16032936735278475	0.8187057573850325
id-1279_gender-F_age-19	1	4	1	2	5	id-1279_gender-F_age-19	arousal	0.2771693538486721	1.0687422064620478
id-1279_gender-F_age-19	1	4	1	2	5	id-1279_gender-F_age-19	valence	0.4103344825469576	1.0687422064620478
id-1339_gender-F_age-30	1	4	1	2	6	id-1339_gender-F_age-30	arousal	0.4021719114457585	2.5355234374364954
id-1339_gender-F_age-30	1	4	1	2	6	id-1339_gender-F_age-30	valence	0.6195778941768629	2.5355234374364954
id-1318_gender-M_age-35	1	4	1	2	7	id-1318_gender-M_age-35	arousal	0.19972211707656423	2.6772217561920115
id-1318_gender-M_age-35	1	4	1	2	7	id-1318_gender-M_age-35	valence	-0.6521872570282768	2.6772217561920115
id-1311_gender-F_age-22	1	4	1	2	8	id-1311_gender-F_age-22	arousal	0.2499948848058272	1.2269589756942878
id-1311_gender-F_age-22	1	4	1	2	8	id-1311_gender-F_age-22	valence	0.0054348938085689745	1.2269589756942878
id-1361_gender-F_age-19	1	4	1	2	9	id-1361_gender-F_age-19	arousal	0.5	0.29364977069417364
id-1361_gender-F_age-19	1	4	1	2	9	id-1361_gender-F_age-19	valence	0.0	0.29364977069417364
id-1345_gender-M_age-18	1	4	1	2	10	id-1345_gender-M_age-18	arousal	0.37092127204648684	1.6605279275390783
id-1345_gender-M_age-18	1	4	1	2	10	id-1345_gender-M_age-18	valence	-0.21467830543847446	1.6605279275390783
id-1297_gender-F_age-22	1	4	1	2	11	id-1297_gender-F_age-22	arousal	0.37092127204648684	0.8936616638111445
id-1297_gender-F_age-22	1	4	1	2	11	id-1297_gender-F_age-22	valence	-0.2201131992470434	0.8936616638111445
id-1358_gender-F_age-32	1	4	1	2	12	id-1358_gender-F_age-32	arousal	0.5027174469042844	4.1524413637725965
id-1358_gender-F_age-32	1	4	1	2	12	id-1358_gender-F_age-32	valence	-0.010869787617137949	4.1524413637725965
id-1373_gender-F_age-30	1	4	1	2	13	id-1373_gender-F_age-30	arousal	0.2540710551622539	0.8103434484164609
id-1373_gender-F_age-30	1	4	1	2	13	id-1373_gender-F_age-30	valence	-0.23370043376846586	0.8103434484164609
id-1370_gender-M_age-19	1	4	1	2	14	id-1370_gender-M_age-19	arousal	0.6684817080656382	1.5437565521551733
id-1370_gender-M_age-19	1	4	1	2	14	id-1370_gender-M_age-19	valence	0.3288110754184229	1.5437565521551733
id-1290_gender-F_age-23	1	4	1	2	15	id-1290_gender-F_age-23	arousal	0.5027174469042844	1.2520431858938537
id-1290_gender-F_age-23	1	4	1	2	15	id-1290_gender-F_age-23	valence	-0.20380851782133647	1.2520431858938537
id-1341_gender-M_age-19	1	4	1	2	16	id-1341_gender-M_age-19	arousal	0.4211940397757499	1.2271835563497009
id-1341_gender-M_age-19	1	4	1	2	16	id-1341_gender-M_age-19	valence	-0.33424596922699185	1.2271835563497009
id-1293_gender-F_age-31	1	4	1	2	17	id-1293_gender-F_age-31	arousal	0.30841999324794367	2.9939414538766873
id-1293_gender-F_age-31	1	4	1	2	17	id-1293_gender-F_age-31	valence	-0.2282655399598969	2.9939414538766873
id-1302_gender-F_age-30	1	4	1	2	18	id-1302_gender-F_age-30	arousal	0.3831497831157671	0.91048830897671
id-1302_gender-F_age-30	1	4	1	2	18	id-1302_gender-F_age-30	valence	-0.0625012787985432	0.91048830897671
id-1367_gender-M_age-20	1	4	1	2	19	id-1367_gender-M_age-20	arousal	0.3220072277693662	0.5437438742155791
id-1367_gender-M_age-20	1	4	1	2	19	id-1367_gender-M_age-20	valence	-0.3505506506526989	0.5437438742155791
id-1376_gender-F_age-19	1	4	1	2	20	id-1376_gender-F_age-19	arousal	0.4986412765478578	0.9020758919614308
id-1376_gender-F_age-19	1	4	1	2	20	id-1376_gender-F_age-19	valence	-0.1711991549699227	0.9020758919614308
id-1342_gender-M_age-19	1	4	1	2	21	id-1342_gender-M_age-19	arousal	0.22825530957155132	1.0187029803109908
id-1342_gender-M_age-19	1	4	1	2	21	id-1342_gender-M_age-19	valence	-0.6413174694111391	1.0187029803109908
id-1362_gender-F_age-24	1	4	1	2	22	id-1362_gender-F_age-24	arousal	0.31521361050865493	1.1936455749000745
id-1362_gender-F_age-24	1	4	1	2	22	id-1362_gender-F_age-24	valence	0.010869787617137949	1.1936455749000745
id-1309_gender-M_age-22	1	4	1	2	23	id-1309_gender-M_age-22	arousal	0.343746803003642	0.7687546731031034
id-1309_gender-M_age-22	1	4	1	2	23	id-1309_gender-M_age-22	valence	-0.3043540532798626	0.7687546731031034
id-1296_gender-F_age-23	1	4	1	2	24	id-1296_gender-F_age-23	arousal	0.3220072277693662	3.577319285772319
id-1296_gender-F_age-23	1	4	1	2	24	id-1296_gender-F_age-23	valence	-0.2092434116299055	3.577319285772319
id-1306_gender-F_age-21	1	4	1	2	25	id-1306_gender-F_age-21	arousal	0.30977871670008594	0.9522177490562173
id-1306_gender-F_age-21	1	4	1	2	25	id-1306_gender-F_age-21	valence	-0.2581574559070263	0.9522177490562173
id-1380_gender-F_age-21	1	4	1	2	26	id-1380_gender-F_age-21	arousal	0.5516314911814052	0.7187398972673691
id-1380_gender-F_age-21	1	4	1	2	26	id-1380_gender-F_age-21	valence	0.13043745140565535	0.7187398972673691
id-1260_gender-F_age-22	1	4	1	2	27	id-1260_gender-F_age-22	arousal	0.22553786266726683	2.327190770702145
id-1260_gender-F_age-22	1	4	1	2	27	id-1260_gender-F_age-22	valence	0.0	2.327190770702145
id-1294_gender-F_age-26	1	4	1	2	28	id-1294_gender-F_age-26	arousal	0.32608339812579284	0.8021350858671212
id-1294_gender-F_age-26	1	4	1	2	28	id-1294_gender-F_age-26	valence	0.3260936285141384	0.8021350858671212
id-1356_gender-F_age-20	1	4	1	2	29	id-1356_gender-F_age-20	arousal	0.3790736127593404	0.8437954009859823
id-1356_gender-F_age-20	1	4	1	2	29	id-1356_gender-F_age-20	valence	0.14130723902279332	0.8437954009859823
id-1355_gender-F_age-19	1	4	1	2	30	id-1355_gender-F_age-19	arousal	0.3913021238286205	1.5687812967789796
id-1355_gender-F_age-19	1	4	1	2	30	id-1355_gender-F_age-19	valence	0.0027174469042844872	1.5687812967789796
id-1269_gender-F_age-23	1	4	1	2	31	id-1269_gender-F_age-23	arousal	0.32880084503007734	1.2188565645028575
id-1269_gender-F_age-23	1	4	1	2	31	id-1269_gender-F_age-23	valence	-0.11141532307566396	1.2188565645028575
id-1280_gender-M_age-18	1	4	1	2	32	id-1280_gender-M_age-18	arousal	0.25950594897082296	1.4020914375305438
id-1280_gender-M_age-18	1	4	1	2	32	id-1280_gender-M_age-18	valence	-0.15489447354421576	1.4020914375305438
id-1360_gender-F_age-20	1	4	1	2	33	id-1360_gender-F_age-20	arousal	0.399454464541474	3.6607283597368223
id-1360_gender-F_age-20	1	4	1	2	33	id-1360_gender-F_age-20	valence	-0.22283064615132792	3.6607283597368223
id-1291_gender-F_age-24	1	4	1	2	34	id-1291_gender-F_age-24	arousal	0.5692948960592544	1.8688645183992776
id-1291_gender-F_age-24	1	4	1	2	34	id-1291_gender-F_age-24	valence	-0.0027174469042844872	1.8688645183992776
id-1285_gender-F_age-19	1	4	1	2	35	id-1285_gender-F_age-19	arousal	0.33967063264721525	1.035363001121368
id-1285_gender-F_age-19	1	4	1	2	35	id-1285_gender-F_age-19	valence	-0.19837362401276756	1.035363001121368
id-1266_gender-M_age-21	1	4	1	2	36	id-1266_gender-M_age-21	arousal	0.33967063264721525	1.1519502445171383
id-1266_gender-M_age-21	1	4	1	2	36	id-1266_gender-M_age-21	valence	-0.2581574559070263	1.1519502445171383
id-1310_gender-F_age-28	1	4	1	2	37	id-1310_gender-F_age-28	arousal	0.6752753253263495	1.110445988806532
id-1310_gender-F_age-28	1	4	1	2	37	id-1310_gender-F_age-28	valence	-0.3722902258869748	1.110445988806532
id-1264_gender-F_age-26	1	4	1	2	38	id-1264_gender-F_age-26	arousal	0.349181696812211	1.143761200733934
id-1264_gender-F_age-26	1	4	1	2	38	id-1264_gender-F_age-26	valence	0.6087081065597252	1.143761200733934
id-1289_gender-F_age-20	1	4	1	2	39	id-1289_gender-F_age-20	arousal	0.44565106191431025	1.1604984966070333
id-1289_gender-F_age-20	1	4	1	2	39	id-1289_gender-F_age-20	valence	-0.0027174469042844872	1.1604984966070333
id-1323_gender-F_age-23	1	4	1	2	40	id-1323_gender-F_age-23	arousal	0.3559753140729222	1.469246486625707
id-1323_gender-F_age-23	1	4	1	2	40	id-1323_gender-F_age-23	valence	-0.15761192044850025	1.469246486625707
id-1315_gender-M_age-16	1	4	1	2	41	id-1315_gender-M_age-16	arousal	0.3627689313336334	0.8270834609938902
id-1315_gender-M_age-16	1	4	1	2	41	id-1315_gender-M_age-16	valence	-0.4538136330155093	0.8270834609938902
id-1274_gender-F_age-33	1	4	1	2	42	id-1274_gender-F_age-33	arousal	0.639948515570651	0.7185886675506481
id-1274_gender-F_age-33	1	4	1	2	42	id-1274_gender-F_age-33	valence	-0.4483787392069404	0.7185886675506481
id-1347_gender-F_age-27	1	4	1	2	43	id-1347_gender-F_age-27	arousal	0.3002676525350902	1.6355795524141286
id-1347_gender-F_age-27	1	4	1	2	43	id-1347_gender-F_age-27	valence	0.0027174469042844872	1.6355795524141286
id-1335_gender-M_age-23	1	4	1	2	44	id-1335_gender-M_age-23	arousal	0.5883170243892458	1.6358192258539932
id-1335_gender-M_age-23	1	4	1	2	44	id-1335_gender-M_age-23	valence	0.3885949073126817	1.6358192258539932
id-1363_gender-M_age-19	1	4	1	2	45	id-1363_gender-M_age-19	arousal	0.550272767729263	0.9687186919018131
id-1363_gender-M_age-19	1	4	1	2	45	id-1363_gender-M_age-19	valence	0.0	0.9687186919018131
id-1378_gender-F_age-19	1	4	1	2	46	id-1378_gender-F_age-19	arousal	0.544837873920694	0.9352585892283968
id-1378_gender-F_age-19	1	4	1	2	46	id-1378_gender-F_age-19	valence	0.3532680975569833	0.9352585892283968
id-1366_gender-F_age-24	1	4	1	2	47	id-1366_gender-F_age-24	arousal	0.3342357388386463	1.7271876314007386
id-1366_gender-F_age-24	1	4	1	2	47	id-1366_gender-F_age-24	valence	-0.0027174469042844872	1.7271876314007386
id-1295_gender-F_age-26	1	4	1	2	48	id-1295_gender-F_age-26	arousal	0.550272767729263	0.7436644257904845
id-1295_gender-F_age-26	1	4	1	2	48	id-1295_gender-F_age-26	valence	-0.3695727789826902	0.7436644257904845
id-1344_gender-M_age-25	1	4	1	2	49	id-1344_gender-M_age-25	arousal	0.5013587234521423	3.5939153131694184
id-1344_gender-M_age-25	1	4	1	2	49	id-1344_gender-M_age-25	valence	-0.4320740577812335	3.5939153131694184
id-1354_gender-F_age-23	1	4	1	2	50	id-1354_gender-F_age-23	arousal	0.34238807955149975	0.8435949687900575
id-1354_gender-F_age-23	1	4	1	2	50	id-1354_gender-F_age-23	valence	-0.1820689425870606	0.8435949687900575
id-1293_gender-F_age-31	1	4	1	3	1	id-1293_gender-F_age-31	trustworthiness	-0.30000000000000004	2.21
id-1380_gender-F_age-21	1	4	1	3	2	id-1380_gender-F_age-21	trustworthiness	0.08250000000000002	0.76
id-1362_gender-F_age-24	1	4	1	3	3	id-1362_gender-F_age-24	trustworthiness	-0.007499999999999951	2.26
id-1356_gender-F_age-20	1	4	1	3	4	id-1356_gender-F_age-20	trustworthiness	0.004999999999999893	1.8430000000000002
id-1269_gender-F_age-23	1	4	1	3	5	id-1269_gender-F_age-23	trustworthiness	-0.31999999999999995	0.726
id-1289_gender-F_age-20	1	4	1	3	6	id-1289_gender-F_age-20	trustworthiness	-0.2025	0.768
id-1294_gender-F_age-26	1	4	1	3	7	id-1294_gender-F_age-26	trustworthiness	0.2749999999999999	0.601
id-1264_gender-F_age-26	1	4	1	3	8	id-1264_gender-F_age-26	trustworthiness	0.2975000000000001	0.976
id-1376_gender-F_age-19	1	4	1	3	9	id-1376_gender-F_age-19	trustworthiness	0.0024999999999999467	0.309
id-1270_gender-F_age-30	1	4	1	3	10	id-1270_gender-F_age-30	trustworthiness	-0.275	1.01
id-1355_gender-F_age-19	1	4	1	3	11	id-1355_gender-F_age-19	trustworthiness	-0.125	0.792
id-1345_gender-M_age-18	1	4	1	3	12	id-1345_gender-M_age-18	trustworthiness	-0.25749999999999995	7.718999999999999
id-1377_gender-M_age-20	1	4	1	3	13	id-1377_gender-M_age-20	trustworthiness	0.2825	1.0759999999999998
id-1309_gender-M_age-22	1	4	1	3	14	id-1309_gender-M_age-22	trustworthiness	-0.35750000000000004	0.693
id-1366_gender-F_age-24	1	4	1	3	15	id-1366_gender-F_age-24	trustworthiness	-0.5825	0.6509999999999999
id-1363_gender-M_age-19	1	4	1	3	16	id-1363_gender-M_age-19	trustworthiness	0.1725000000000001	0.584
id-1323_gender-F_age-23	1	4	1	3	17	id-1323_gender-F_age-23	trustworthiness	-0.275	0.884
id-1367_gender-M_age-20	1	4	1	3	18	id-1367_gender-M_age-20	trustworthiness	0.24750000000000005	0.7759999999999999
id-1344_gender-M_age-25	1	4	1	3	19	id-1344_gender-M_age-25	trustworthiness	-0.4325	0.843
id-1311_gender-F_age-22	1	4	1	3	20	id-1311_gender-F_age-22	trustworthiness	0.3425	0.8009999999999999
id-1273_gender-F_age-20	1	4	1	3	21	id-1273_gender-F_age-20	trustworthiness	0.2549999999999999	1.9180000000000001
id-1279_gender-F_age-19	1	4	1	3	22	id-1279_gender-F_age-19	trustworthiness	0.385	2.285
id-1290_gender-F_age-23	1	4	1	3	23	id-1290_gender-F_age-23	trustworthiness	0.0024999999999999467	0.309
id-1285_gender-F_age-19	1	4	1	3	24	id-1285_gender-F_age-19	trustworthiness	-0.3425	0.843
id-1358_gender-F_age-32	1	4	1	3	25	id-1358_gender-F_age-32	trustworthiness	0.0024999999999999467	0.6679999999999999
id-1306_gender-F_age-21	1	4	1	3	26	id-1306_gender-F_age-21	trustworthiness	-0.29500000000000004	0.601
id-1296_gender-F_age-23	1	4	1	3	27	id-1296_gender-F_age-23	trustworthiness	-0.16000000000000003	0.718
id-1266_gender-M_age-21	1	4	1	3	28	id-1266_gender-M_age-21	trustworthiness	-0.37749999999999995	0.601
id-1361_gender-F_age-19	1	4	1	3	29	id-1361_gender-F_age-19	trustworthiness	0.15749999999999997	0.5429999999999999
id-1378_gender-F_age-19	1	4	1	3	30	id-1378_gender-F_age-19	trustworthiness	0.27	0.6679999999999999
id-1295_gender-F_age-26	1	4	1	3	31	id-1295_gender-F_age-26	trustworthiness	-0.235	0.8009999999999999
id-1274_gender-F_age-33	1	4	1	3	32	id-1274_gender-F_age-33	trustworthiness	-0.2925	0.584
id-1354_gender-F_age-23	1	4	1	3	33	id-1354_gender-F_age-23	trustworthiness	0.0	0.309
id-1370_gender-M_age-19	1	4	1	3	34	id-1370_gender-M_age-19	trustworthiness	0.19500000000000006	0.726
id-1347_gender-F_age-27	1	4	1	3	35	id-1347_gender-F_age-27	trustworthiness	-0.4525	0.5760000000000001
id-1297_gender-F_age-22	1	4	1	3	36	id-1297_gender-F_age-22	trustworthiness	0.004999999999999893	0.309
id-1291_gender-F_age-24	1	4	1	3	37	id-1291_gender-F_age-24	trustworthiness	0.35250000000000004	0.7340000000000001
id-1342_gender-M_age-19	1	4	1	3	38	id-1342_gender-M_age-19	trustworthiness	-0.395	0.6679999999999999
id-1339_gender-F_age-30	1	4	1	3	39	id-1339_gender-F_age-30	trustworthiness	0.35250000000000004	1.0759999999999998
id-1373_gender-F_age-30	1	4	1	3	40	id-1373_gender-F_age-30	trustworthiness	-0.14749999999999996	0.7759999999999999
id-1318_gender-M_age-35	1	4	1	3	41	id-1318_gender-M_age-35	trustworthiness	-0.3425	0.976
id-1315_gender-M_age-16	1	4	1	3	42	id-1315_gender-M_age-16	trustworthiness	-0.3400000000000001	1.084
id-1341_gender-M_age-19	1	4	1	3	43	id-1341_gender-M_age-19	trustworthiness	-0.18999999999999995	0.6679999999999999
id-1280_gender-M_age-18	1	4	1	3	44	id-1280_gender-M_age-18	trustworthiness	-0.4325	0.885
id-1335_gender-M_age-23	1	4	1	3	45	id-1335_gender-M_age-23	trustworthiness	0.21750000000000003	0.584
id-1310_gender-F_age-28	1	4	1	3	46	id-1310_gender-F_age-28	trustworthiness	0.17999999999999994	1.193
id-1360_gender-F_age-20	1	4	1	3	47	id-1360_gender-F_age-20	trustworthiness	-0.1825	0.701
id-1302_gender-F_age-30	1	4	1	3	48	id-1302_gender-F_age-30	trustworthiness	0.09250000000000003	0.643
id-1260_gender-F_age-22	1	4	1	3	49	id-1260_gender-F_age-22	trustworthiness	0.0	0.326
id-1307_gender-F_age-22	1	4	1	3	50	id-1307_gender-F_age-22	trustworthiness	-0.14749999999999996	0.693
id-1377_gender-M_age-20	1	4	1	4	1	id-1377_gender-M_age-20	attractiveness	0.0	1.81
id-1309_gender-M_age-22	1	4	1	4	2	id-1309_gender-M_age-22	attractiveness	-0.7575	0.9259999999999999
id-1296_gender-F_age-23	1	4	1	4	3	id-1296_gender-F_age-23	attractiveness	-0.235	0.5429999999999999
id-1311_gender-F_age-22	1	4	1	4	4	id-1311_gender-F_age-22	attractiveness	0.31499999999999995	0.884
id-1363_gender-M_age-19	1	4	1	4	5	id-1363_gender-M_age-19	attractiveness	0.07000000000000006	0.618
id-1297_gender-F_age-22	1	4	1	4	6	id-1297_gender-F_age-22	attractiveness	0.0	0.843
id-1344_gender-M_age-25	1	4	1	4	7	id-1344_gender-M_age-25	attractiveness	-0.565	1.16
id-1307_gender-F_age-22	1	4	1	4	8	id-1307_gender-F_age-22	attractiveness	-0.20999999999999996	1.735
id-1323_gender-F_age-23	1	4	1	4	9	id-1323_gender-F_age-23	attractiveness	-0.23250000000000004	1.068
id-1273_gender-F_age-20	1	4	1	4	10	id-1273_gender-F_age-20	attractiveness	0.01750000000000007	0.327
id-1362_gender-F_age-24	1	4	1	4	11	id-1362_gender-F_age-24	attractiveness	-0.21999999999999997	1.043
id-1269_gender-F_age-23	1	4	1	4	12	id-1269_gender-F_age-23	attractiveness	-0.0024999999999999467	0.44299999999999995
id-1280_gender-M_age-18	1	4	1	4	13	id-1280_gender-M_age-18	attractiveness	-0.61	0.8009999999999999
id-1290_gender-F_age-23	1	4	1	4	14	id-1290_gender-F_age-23	attractiveness	0.32499999999999996	0.493
id-1289_gender-F_age-20	1	4	1	4	15	id-1289_gender-F_age-20	attractiveness	-0.4125	0.86
id-1347_gender-F_age-27	1	4	1	4	16	id-1347_gender-F_age-27	attractiveness	-0.8125	1.01
id-1342_gender-M_age-19	1	4	1	4	17	id-1342_gender-M_age-19	attractiveness	-0.4	0.6509999999999999
id-1274_gender-F_age-33	1	4	1	4	18	id-1274_gender-F_age-33	attractiveness	-0.255	0.5760000000000001
id-1380_gender-F_age-21	1	4	1	4	19	id-1380_gender-F_age-21	attractiveness	0.010000000000000009	0.34299999999999997
id-1355_gender-F_age-19	1	4	1	4	20	id-1355_gender-F_age-19	attractiveness	-0.050000000000000044	0.634
id-1302_gender-F_age-30	1	4	1	4	21	id-1302_gender-F_age-30	attractiveness	-0.12749999999999995	0.818
id-1310_gender-F_age-28	1	4	1	4	22	id-1310_gender-F_age-28	attractiveness	0.395	0.601
id-1360_gender-F_age-20	1	4	1	4	23	id-1360_gender-F_age-20	attractiveness	-0.405	0.584
id-1370_gender-M_age-19	1	4	1	4	24	id-1370_gender-M_age-19	attractiveness	0.23750000000000004	1.085
id-1358_gender-F_age-32	1	4	1	4	25	id-1358_gender-F_age-32	attractiveness	0.23249999999999993	0.768
id-1354_gender-F_age-23	1	4	1	4	26	id-1354_gender-F_age-23	attractiveness	-0.36250000000000004	0.885
id-1341_gender-M_age-19	1	4	1	4	27	id-1341_gender-M_age-19	attractiveness	-0.15000000000000002	0.8590000000000001
id-1270_gender-F_age-30	1	4	1	4	28	id-1270_gender-F_age-30	attractiveness	0.014999999999999902	0.309
id-1294_gender-F_age-26	1	4	1	4	29	id-1294_gender-F_age-26	attractiveness	0.25	0.7759999999999999
id-1306_gender-F_age-21	1	4	1	4	30	id-1306_gender-F_age-21	attractiveness	0.3274999999999999	0.9179999999999999
id-1376_gender-F_age-19	1	4	1	4	31	id-1376_gender-F_age-19	attractiveness	0.3225	1.0759999999999998
id-1295_gender-F_age-26	1	4	1	4	32	id-1295_gender-F_age-26	attractiveness	0.25750000000000006	0.826
id-1367_gender-M_age-20	1	4	1	4	33	id-1367_gender-M_age-20	attractiveness	-0.1975	0.893
id-1335_gender-M_age-23	1	4	1	4	34	id-1335_gender-M_age-23	attractiveness	0.1499999999999999	0.71
id-1279_gender-F_age-19	1	4	1	4	35	id-1279_gender-F_age-19	attractiveness	0.0024999999999999467	0.743
id-1345_gender-M_age-18	1	4	1	4	36	id-1345_gender-M_age-18	attractiveness	0.4025000000000001	1.034
id-1373_gender-F_age-30	1	4	1	4	37	id-1373_gender-F_age-30	attractiveness	-0.245	0.9009999999999999
id-1378_gender-F_age-19	1	4	1	4	38	id-1378_gender-F_age-19	attractiveness	0.0	0.318
id-1366_gender-F_age-24	1	4	1	4	39	id-1366_gender-F_age-24	attractiveness	-0.36	0.609
id-1264_gender-F_age-26	1	4	1	4	40	id-1264_gender-F_age-26	attractiveness	-0.36750000000000005	0.643
id-1291_gender-F_age-24	1	4	1	4	41	id-1291_gender-F_age-24	attractiveness	0.14500000000000002	0.618
id-1266_gender-M_age-21	1	4	1	4	42	id-1266_gender-M_age-21	attractiveness	-0.13249999999999995	0.8009999999999999
id-1318_gender-M_age-35	1	4	1	4	43	id-1318_gender-M_age-35	attractiveness	-0.515	0.8009999999999999
id-1260_gender-F_age-22	1	4	1	4	44	id-1260_gender-F_age-22	attractiveness	-0.43000000000000005	1.026
id-1356_gender-F_age-20	1	4	1	4	45	id-1356_gender-F_age-20	attractiveness	0.03499999999999992	0.418
id-1285_gender-F_age-19	1	4	1	4	46	id-1285_gender-F_age-19	attractiveness	-0.3075	0.785
id-1361_gender-F_age-19	1	4	1	4	47	id-1361_gender-F_age-19	attractiveness	0.37250000000000005	1.168
id-1315_gender-M_age-16	1	4	1	4	48	id-1315_gender-M_age-16	attractiveness	-0.39	0.7929999999999999
id-1293_gender-F_age-31	1	4	1	4	49	id-1293_gender-F_age-31	attractiveness	-0.36	0.659
id-1339_gender-F_age-30	1	4	1	4	50	id-1339_gender-F_age-30	attractiveness	0.35250000000000004	0.8009999999999999
id-1376_gender-F_age-19	2	4	2	1	1	id-1376_gender-F_age-19	dominance	-0.16249999999999998	0.693
id-1361_gender-F_age-19	2	4	2	1	2	id-1361_gender-F_age-19	dominance	0.0	0.718
id-1323_gender-F_age-23	2	4	2	1	3	id-1323_gender-F_age-23	dominance	-0.35250000000000004	0.626
id-1339_gender-F_age-30	2	4	2	1	4	id-1339_gender-F_age-30	dominance	-0.45999999999999996	0.601
id-1341_gender-M_age-19	2	4	2	1	5	id-1341_gender-M_age-19	dominance	0.43500000000000005	1.2429999999999999
id-1344_gender-M_age-25	2	4	2	1	6	id-1344_gender-M_age-25	dominance	0.5825	1.218
id-1347_gender-F_age-27	2	4	2	1	7	id-1347_gender-F_age-27	dominance	-0.52	1.41
id-1302_gender-F_age-30	2	4	2	1	8	id-1302_gender-F_age-30	dominance	-0.14	0.7759999999999999
id-1377_gender-M_age-20	2	4	2	1	9	id-1377_gender-M_age-20	dominance	0.012499999999999956	0.326
id-1380_gender-F_age-21	2	4	2	1	10	id-1380_gender-F_age-21	dominance	-0.11499999999999999	1.768
id-1296_gender-F_age-23	2	4	2	1	11	id-1296_gender-F_age-23	dominance	-0.18999999999999995	0.634
id-1345_gender-M_age-18	2	4	2	1	12	id-1345_gender-M_age-18	dominance	0.4575	1.0759999999999998
id-1342_gender-M_age-19	2	4	2	1	13	id-1342_gender-M_age-19	dominance	0.53	1.1340000000000001
id-1309_gender-M_age-22	2	4	2	1	14	id-1309_gender-M_age-22	dominance	0.12250000000000005	0.534
id-1260_gender-F_age-22	2	4	2	1	15	id-1260_gender-F_age-22	dominance	-0.4675	0.993
id-1358_gender-F_age-32	2	4	2	1	16	id-1358_gender-F_age-32	dominance	0.0024999999999999467	0.309
id-1264_gender-F_age-26	2	4	2	1	17	id-1264_gender-F_age-26	dominance	-0.37749999999999995	0.659
id-1280_gender-M_age-18	2	4	2	1	18	id-1280_gender-M_age-18	dominance	-0.39749999999999996	1.66
id-1289_gender-F_age-20	2	4	2	1	19	id-1289_gender-F_age-20	dominance	-0.12250000000000005	0.768
id-1285_gender-F_age-19	2	4	2	1	20	id-1285_gender-F_age-19	dominance	-0.4175	0.718
id-1378_gender-F_age-19	2	4	2	1	21	id-1378_gender-F_age-19	dominance	-0.22999999999999998	0.726
id-1297_gender-F_age-22	2	4	2	1	22	id-1297_gender-F_age-22	dominance	0.17999999999999994	1.001
id-1354_gender-F_age-23	2	4	2	1	23	id-1354_gender-F_age-23	dominance	-0.27	0.684
id-1360_gender-F_age-20	2	4	2	1	24	id-1360_gender-F_age-20	dominance	-0.20750000000000002	1.068
id-1366_gender-F_age-24	2	4	2	1	25	id-1366_gender-F_age-24	dominance	-0.37250000000000005	0.634
id-1290_gender-F_age-23	2	4	2	1	26	id-1290_gender-F_age-23	dominance	0.3400000000000001	1.643
id-1291_gender-F_age-24	2	4	2	1	27	id-1291_gender-F_age-24	dominance	0.0024999999999999467	1.8430000000000002
id-1356_gender-F_age-20	2	4	2	1	28	id-1356_gender-F_age-20	dominance	0.04249999999999998	0.35100000000000003
id-1362_gender-F_age-24	2	4	2	1	29	id-1362_gender-F_age-24	dominance	0.010000000000000009	0.643
id-1307_gender-F_age-22	2	4	2	1	30	id-1307_gender-F_age-22	dominance	0.08749999999999991	0.9590000000000001
id-1311_gender-F_age-22	2	4	2	1	31	id-1311_gender-F_age-22	dominance	0.13250000000000006	2.735
id-1355_gender-F_age-19	2	4	2	1	32	id-1355_gender-F_age-19	dominance	-0.20999999999999996	0.6509999999999999
id-1367_gender-M_age-20	2	4	2	1	33	id-1367_gender-M_age-20	dominance	0.4724999999999999	1.176
id-1315_gender-M_age-16	2	4	2	1	34	id-1315_gender-M_age-16	dominance	0.5049999999999999	0.985
id-1306_gender-F_age-21	2	4	2	1	35	id-1306_gender-F_age-21	dominance	0.3374999999999999	0.9009999999999999
id-1269_gender-F_age-23	2	4	2	1	36	id-1269_gender-F_age-23	dominance	0.3325	2.176
id-1270_gender-F_age-30	2	4	2	1	37	id-1270_gender-F_age-30	dominance	0.3325	1.2429999999999999
id-1279_gender-F_age-19	2	4	2	1	38	id-1279_gender-F_age-19	dominance	-0.6275	1.168
id-1293_gender-F_age-31	2	4	2	1	39	id-1293_gender-F_age-31	dominance	-0.39749999999999996	0.993
id-1373_gender-F_age-30	2	4	2	1	40	id-1373_gender-F_age-30	dominance	-0.09250000000000003	1.801
id-1363_gender-M_age-19	2	4	2	1	41	id-1363_gender-M_age-19	dominance	-0.09999999999999998	3.0010000000000003
id-1335_gender-M_age-23	2	4	2	1	42	id-1335_gender-M_age-23	dominance	-0.0024999999999999467	1.1179999999999999
id-1294_gender-F_age-26	2	4	2	1	43	id-1294_gender-F_age-26	dominance	-0.23750000000000004	0.726
id-1295_gender-F_age-26	2	4	2	1	44	id-1295_gender-F_age-26	dominance	0.4575	1.043
id-1318_gender-M_age-35	2	4	2	1	45	id-1318_gender-M_age-35	dominance	0.5825	1.976
id-1274_gender-F_age-33	2	4	2	1	46	id-1274_gender-F_age-33	dominance	0.37749999999999995	1.093
id-1273_gender-F_age-20	2	4	2	1	47	id-1273_gender-F_age-20	dominance	0.010000000000000009	0.501
id-1370_gender-M_age-19	2	4	2	1	48	id-1370_gender-M_age-19	dominance	0.125	0.593
id-1310_gender-F_age-28	2	4	2	1	49	id-1310_gender-F_age-28	dominance	0.2749999999999999	0.843
id-1266_gender-M_age-21	2	4	2	1	50	id-1266_gender-M_age-21	dominance	0.19500000000000006	0.893
id-1270_gender-F_age-30	2	4	2	2	1	id-1270_gender-F_age-30	arousal	0.5040761703564267	7.119493208398127
id-1270_gender-F_age-30	2	4	2	2	1	id-1270_gender-F_age-30	valence	0.13858979211850886	7.119493208398127
id-1377_gender-M_age-20	2	4	2	2	2	id-1377_gender-M_age-20	arousal	0.5842408540328191	1.5936496801368776
id-1377_gender-M_age-20	2	4	2	2	2	id-1377_gender-M_age-20	valence	-0.0054348938085689745	1.5936496801368776
id-1307_gender-F_age-22	2	4	2	2	3	id-1307_gender-F_age-22	arousal	0.4103242521586119	2.5687761652316112
id-1307_gender-F_age-22	2	4	2	2	3	id-1307_gender-F_age-22	valence	-0.09782808855424154	2.5687761652316112
id-1273_gender-F_age-20	2	4	2	2	4	id-1273_gender-F_age-20	arousal	0.5679361726071122	0.6770394353352458
id-1273_gender-F_age-20	2	4	2	2	4	id-1273_gender-F_age-20	valence	0.15761192044850025	0.6770394353352458
id-1279_gender-F_age-19	2	4	2	2	5	id-1279_gender-F_age-19	arousal	0.40353063489790075	0.910321684621522
id-1279_gender-F_age-19	2	4	2	2	5	id-1279_gender-F_age-19	valence	0.21467830543847446	0.910321684621522
id-1339_gender-F_age-30	2	4	2	2	6	id-1339_gender-F_age-30	arousal	0.6019042589106682	0.7102791833349329
id-1339_gender-F_age-30	2	4	2	2	6	id-1339_gender-F_age-30	valence	0.21739575234275896	0.7102791833349329
id-1318_gender-M_age-35	2	4	2	2	7	id-1318_gender-M_age-35	arousal	0.4986412765478578	1.9356380218669076
id-1318_gender-M_age-35	2	4	2	2	7	id-1318_gender-M_age-35	valence	-0.3288110754184229	1.9356380218669076
id-1311_gender-F_age-22	2	4	2	2	8	id-1311_gender-F_age-22	arousal	0.4959238296435733	1.0853165002499736
id-1311_gender-F_age-22	2	4	2	2	8	id-1311_gender-F_age-22	valence	0.402182141834104	1.0853165002499736
id-1361_gender-F_age-19	2	4	2	2	9	id-1361_gender-F_age-19	arousal	0.5869583009371035	1.9354342692586213
id-1361_gender-F_age-19	2	4	2	2	9	id-1361_gender-F_age-19	valence	0.1657642611613537	1.9354342692586213
id-1345_gender-M_age-18	2	4	2	2	10	id-1345_gender-M_age-18	arousal	0.5013587234521423	1.2270646251963626
id-1345_gender-M_age-18	2	4	2	2	10	id-1345_gender-M_age-18	valence	-0.09239319474567256	1.2270646251963626
id-1297_gender-F_age-22	2	4	2	2	11	id-1297_gender-F_age-22	arousal	0.3858672300200515	1.3020772804957232
id-1297_gender-F_age-22	2	4	2	2	11	id-1297_gender-F_age-22	valence	-0.20652596472562101	1.3020772804957232
id-1358_gender-F_age-32	2	4	2	2	12	id-1358_gender-F_age-32	arousal	0.5027174469042844	1.11865555877921
id-1358_gender-F_age-32	2	4	2	2	12	id-1358_gender-F_age-32	valence	0.09511064164995704	1.11865555877921
id-1373_gender-F_age-30	2	4	2	2	13	id-1373_gender-F_age-30	arousal	0.33287701538650405	0.6935877695304953
id-1373_gender-F_age-30	2	4	2	2	13	id-1373_gender-F_age-30	valence	-0.17663404877849165	0.6935877695304953
id-1370_gender-M_age-19	2	4	2	2	14	id-1370_gender-M_age-19	arousal	0.6494595797356468	0.8519805206469755
id-1370_gender-M_age-19	2	4	2	2	14	id-1370_gender-M_age-19	valence	0.30707150018414703	0.8519805206469755
id-1290_gender-F_age-23	2	4	2	2	15	id-1290_gender-F_age-23	arousal	0.6440246859270777	1.1185716428899468
id-1290_gender-F_age-23	2	4	2	2	15	id-1290_gender-F_age-23	valence	-0.3451157568441299	1.1185716428899468
id-1341_gender-M_age-19	2	4	2	2	16	id-1341_gender-M_age-19	arousal	0.5706536195113967	2.343871015842524
id-1341_gender-M_age-19	2	4	2	2	16	id-1341_gender-M_age-19	valence	-0.4565310799197938	2.343871015842524
id-1293_gender-F_age-31	2	4	2	2	17	id-1293_gender-F_age-31	arousal	0.33559446229078854	0.9271471223637492
id-1293_gender-F_age-31	2	4	2	2	17	id-1293_gender-F_age-31	valence	-0.3179412878012849	0.9271471223637492
id-1302_gender-F_age-30	2	4	2	2	18	id-1302_gender-F_age-30	arousal	0.43749872120145683	1.2853689627736458
id-1302_gender-F_age-30	2	4	2	2	18	id-1302_gender-F_age-30	valence	-0.32337618160985393	1.2853689627736458
id-1367_gender-M_age-20	2	4	2	2	19	id-1367_gender-M_age-20	arousal	0.25678850206653836	0.7686152157621109
id-1367_gender-M_age-20	2	4	2	2	19	id-1367_gender-M_age-20	valence	-0.4320740577812335	0.7686152157621109
id-1376_gender-F_age-19	2	4	2	2	20	id-1376_gender-F_age-19	arousal	0.35189914371649544	1.860710791734164
id-1376_gender-F_age-19	2	4	2	2	20	id-1376_gender-F_age-19	valence	0.0	1.860710791734164
id-1342_gender-M_age-19	2	4	2	2	21	id-1342_gender-M_age-19	arousal	0.5964693651020992	1.0770510869679129
id-1342_gender-M_age-19	2	4	2	2	21	id-1342_gender-M_age-19	valence	-0.5543591684740353	1.0770510869679129
id-1362_gender-F_age-24	2	4	2	2	22	id-1362_gender-F_age-24	arousal	0.25678850206653836	2.1520429142237845
id-1362_gender-F_age-24	2	4	2	2	22	id-1362_gender-F_age-24	valence	-0.1657642611613537	2.1520429142237845
id-1309_gender-M_age-22	2	4	2	2	23	id-1309_gender-M_age-22	arousal	0.34646424990792646	0.7436429940335074
id-1309_gender-M_age-22	2	4	2	2	23	id-1309_gender-M_age-22	valence	-0.11956766378851742	0.7436429940335074
id-1296_gender-F_age-23	2	4	2	2	24	id-1296_gender-F_age-23	arousal	0.2948327587265212	2.4857045659609867
id-1296_gender-F_age-23	2	4	2	2	24	id-1296_gender-F_age-23	valence	-0.16032936735278475	2.4857045659609867
id-1306_gender-F_age-21	2	4	2	2	25	id-1306_gender-F_age-21	arousal	0.3682038251422024	3.0272790031267505
id-1306_gender-F_age-21	2	4	2	2	25	id-1306_gender-F_age-21	valence	-0.0027174469042844872	3.0272790031267505
id-1380_gender-F_age-21	2	4	2	2	26	id-1380_gender-F_age-21	arousal	0.5	1.5938555457396433
id-1380_gender-F_age-21	2	4	2	2	26	id-1380_gender-F_age-21	valence	0.0054348938085689745	1.5938555457396433
id-1260_gender-F_age-22	2	4	2	2	27	id-1260_gender-F_age-22	arousal	0.3899434003764783	2.4688966358480684
id-1260_gender-F_age-22	2	4	2	2	27	id-1260_gender-F_age-22	valence	0.0	2.4688966358480684
id-1294_gender-F_age-26	2	4	2	2	28	id-1294_gender-F_age-26	arousal	0.5652187257028277	1.8935457512161518
id-1294_gender-F_age-26	2	4	2	2	28	id-1294_gender-F_age-26	valence	0.3423983099398454	1.8935457512161518
id-1356_gender-F_age-20	2	4	2	2	29	id-1356_gender-F_age-20	arousal	0.6467421328313623	1.4188854822805297
id-1356_gender-F_age-20	2	4	2	2	29	id-1356_gender-F_age-20	valence	0.3695727789826902	1.4188854822805297
id-1355_gender-F_age-19	2	4	2	2	30	id-1355_gender-F_age-19	arousal	0.5	7.48627446955652
id-1355_gender-F_age-19	2	4	2	2	30	id-1355_gender-F_age-19	valence	0.41305192945124203	7.48627446955652
id-1269_gender-F_age-23	2	4	2	2	31	id-1269_gender-F_age-23	arousal	0.5027174469042844	1.418769569683718
id-1269_gender-F_age-23	2	4	2	2	31	id-1269_gender-F_age-23	valence	-0.23913532757703485	1.418769569683718
id-1280_gender-M_age-18	2	4	2	2	32	id-1280_gender-M_age-18	arousal	0.26765828968367633	1.8521631433559376
id-1280_gender-M_age-18	2	4	2	2	32	id-1280_gender-M_age-18	valence	-0.5135974649097681	1.8521631433559376
id-1360_gender-F_age-20	2	4	2	2	33	id-1360_gender-F_age-20	arousal	0.3668451016900601	0.9269925722364859
id-1360_gender-F_age-20	2	4	2	2	33	id-1360_gender-F_age-20	valence	-0.2663097966198797	0.9269925722364859
id-1291_gender-F_age-24	2	4	2	2	34	id-1291_gender-F_age-24	arousal	0.5529902146335475	1.2770015222577058
id-1291_gender-F_age-24	2	4	2	2	34	id-1291_gender-F_age-24	valence	-0.010869787617137949	1.2770015222577058
id-1285_gender-F_age-19	2	4	2	2	35	id-1285_gender-F_age-19	arousal	0.29619148217866353	0.710431016761504
id-1285_gender-F_age-19	2	4	2	2	35	id-1285_gender-F_age-19	valence	-0.17663404877849165	0.710431016761504
id-1266_gender-M_age-21	2	4	2	2	36	id-1266_gender-M_age-21	arousal	0.5	1.3353864553118908
id-1266_gender-M_age-21	2	4	2	2	36	id-1266_gender-M_age-21	valence	-0.3994646949298196	1.3353864553118908
id-1310_gender-F_age-28	2	4	2	2	37	id-1310_gender-F_age-28	arousal	0.6481008562835046	0.8353389130352298
id-1310_gender-F_age-28	2	4	2	2	37	id-1310_gender-F_age-28	valence	-0.4429438453983714	0.8353389130352298
id-1264_gender-F_age-26	2	4	2	2	38	id-1264_gender-F_age-26	arousal	0.3682038251422024	1.968792948408009
id-1264_gender-F_age-26	2	4	2	2	38	id-1264_gender-F_age-26	valence	0.3994646949298196	1.968792948408009
id-1289_gender-F_age-20	2	4	2	2	39	id-1289_gender-F_age-20	arousal	0.4986412765478578	1.0436592036858199
id-1289_gender-F_age-20	2	4	2	2	39	id-1289_gender-F_age-20	valence	-0.3369634161312764	1.0436592036858199
id-1323_gender-F_age-23	2	4	2	2	40	id-1323_gender-F_age-23	arousal	0.6073391527192372	1.085472257798756
id-1323_gender-F_age-23	2	4	2	2	40	id-1323_gender-F_age-23	valence	-0.3641378851741212	1.085472257798756
id-1315_gender-M_age-16	2	4	2	2	41	id-1315_gender-M_age-16	arousal	0.7133195819863323	1.4187852661816578
id-1315_gender-M_age-16	2	4	2	2	41	id-1315_gender-M_age-16	valence	-0.4619659737283627	1.4187852661816578
id-1274_gender-F_age-33	2	4	2	2	42	id-1274_gender-F_age-33	arousal	0.6209263872406596	1.1020305532329076
id-1274_gender-F_age-33	2	4	2	2	42	id-1274_gender-F_age-33	valence	-0.4347915046855179	1.1020305532329076
id-1347_gender-F_age-27	2	4	2	2	43	id-1347_gender-F_age-27	arousal	0.21602679850227113	0.8271568119325821
id-1347_gender-F_age-27	2	4	2	2	43	id-1347_gender-F_age-27	valence	-0.23370043376846586	0.8271568119325821
id-1335_gender-M_age-23	2	4	2	2	44	id-1335_gender-M_age-23	arousal	0.6073391527192372	3.5273120563288103
id-1335_gender-M_age-23	2	4	2	2	44	id-1335_gender-M_age-23	valence	0.402182141834104	3.5273120563288103
id-1363_gender-M_age-19	2	4	2	2	45	id-1363_gender-M_age-19	arousal	0.5665774491549699	1.2771627132133292
id-1363_gender-M_age-19	2	4	2	2	45	id-1363_gender-M_age-19	valence	0.418486823259811	1.2771627132133292
id-1378_gender-F_age-19	2	4	2	2	46	id-1378_gender-F_age-19	arousal	0.5040761703564267	1.2687050178374193
id-1378_gender-F_age-19	2	4	2	2	46	id-1378_gender-F_age-19	valence	0.3967472480255351	1.2687050178374193
id-1366_gender-F_age-24	2	4	2	2	47	id-1366_gender-F_age-24	arousal	0.22417913921512456	1.2602494354541705
id-1366_gender-F_age-24	2	4	2	2	47	id-1366_gender-F_age-24	valence	-0.11141532307566396	1.2602494354541705
id-1295_gender-F_age-26	2	4	2	2	48	id-1295_gender-F_age-26	arousal	0.6453834093792201	0.802006193474881
id-1295_gender-F_age-26	2	4	2	2	48	id-1295_gender-F_age-26	valence	-0.2554400090027418	0.802006193474881
id-1344_gender-M_age-25	2	4	2	2	49	id-1344_gender-M_age-25	arousal	0.5027174469042844	1.1603231184344622
id-1344_gender-M_age-25	2	4	2	2	49	id-1344_gender-M_age-25	valence	-0.6413174694111391	1.1603231184344622
id-1354_gender-F_age-23	2	4	2	2	50	id-1354_gender-F_age-23	arousal	0.30841999324794367	1.085360571183628
id-1354_gender-F_age-23	2	4	2	2	50	id-1354_gender-F_age-23	valence	-0.20380851782133647	1.085360571183628
id-1293_gender-F_age-31	2	4	2	3	1	id-1293_gender-F_age-31	trustworthiness	-0.235	1.0590000000000002
id-1380_gender-F_age-21	2	4	2	3	2	id-1380_gender-F_age-21	trustworthiness	0.20500000000000007	0.826
id-1362_gender-F_age-24	2	4	2	3	3	id-1362_gender-F_age-24	trustworthiness	0.0	0.526
id-1356_gender-F_age-20	2	4	2	3	4	id-1356_gender-F_age-20	trustworthiness	0.2124999999999999	1.1179999999999999
id-1269_gender-F_age-23	2	4	2	3	5	id-1269_gender-F_age-23	trustworthiness	0.0	0.309
id-1289_gender-F_age-20	2	4	2	3	6	id-1289_gender-F_age-20	trustworthiness	-0.275	1.001
id-1294_gender-F_age-26	2	4	2	3	7	id-1294_gender-F_age-26	trustworthiness	0.37749999999999995	1.185
id-1264_gender-F_age-26	2	4	2	3	8	id-1264_gender-F_age-26	trustworthiness	0.0	0.309
id-1376_gender-F_age-19	2	4	2	3	9	id-1376_gender-F_age-19	trustworthiness	0.11749999999999994	1.085
id-1270_gender-F_age-30	2	4	2	3	10	id-1270_gender-F_age-30	trustworthiness	-0.0024999999999999467	0.46799999999999997
id-1355_gender-F_age-19	2	4	2	3	11	id-1355_gender-F_age-19	trustworthiness	-0.25	0.5589999999999999
id-1345_gender-M_age-18	2	4	2	3	12	id-1345_gender-M_age-18	trustworthiness	0.25750000000000006	0.6759999999999999
id-1377_gender-M_age-20	2	4	2	3	13	id-1377_gender-M_age-20	trustworthiness	0.2875000000000001	6.669
id-1309_gender-M_age-22	2	4	2	3	14	id-1309_gender-M_age-22	trustworthiness	-0.405	1.176
id-1366_gender-F_age-24	2	4	2	3	15	id-1366_gender-F_age-24	trustworthiness	-0.5075	0.66
id-1363_gender-M_age-19	2	4	2	3	16	id-1363_gender-M_age-19	trustworthiness	-0.16500000000000004	0.743
id-1323_gender-F_age-23	2	4	2	3	17	id-1323_gender-F_age-23	trustworthiness	-0.38749999999999996	0.851
id-1367_gender-M_age-20	2	4	2	3	18	id-1367_gender-M_age-20	trustworthiness	-0.0024999999999999467	1.6769999999999998
id-1344_gender-M_age-25	2	4	2	3	19	id-1344_gender-M_age-25	trustworthiness	-0.5	0.6509999999999999
id-1311_gender-F_age-22	2	4	2	3	20	id-1311_gender-F_age-22	trustworthiness	0.44999999999999996	0.693
id-1273_gender-F_age-20	2	4	2	3	21	id-1273_gender-F_age-20	trustworthiness	0.15749999999999997	1.151
id-1279_gender-F_age-19	2	4	2	3	22	id-1279_gender-F_age-19	trustworthiness	0.0	0.368
id-1290_gender-F_age-23	2	4	2	3	23	id-1290_gender-F_age-23	trustworthiness	0.3225	0.76
id-1285_gender-F_age-19	2	4	2	3	24	id-1285_gender-F_age-19	trustworthiness	-0.49249999999999994	0.7340000000000001
id-1358_gender-F_age-32	2	4	2	3	25	id-1358_gender-F_age-32	trustworthiness	0.09000000000000008	1.56
id-1306_gender-F_age-21	2	4	2	3	26	id-1306_gender-F_age-21	trustworthiness	-0.39	0.568
id-1296_gender-F_age-23	2	4	2	3	27	id-1296_gender-F_age-23	trustworthiness	-0.38249999999999995	0.868
id-1266_gender-M_age-21	2	4	2	3	28	id-1266_gender-M_age-21	trustworthiness	-0.30500000000000005	0.993
id-1361_gender-F_age-19	2	4	2	3	29	id-1361_gender-F_age-19	trustworthiness	0.31499999999999995	0.593
id-1378_gender-F_age-19	2	4	2	3	30	id-1378_gender-F_age-19	trustworthiness	0.2124999999999999	0.7929999999999999
id-1295_gender-F_age-26	2	4	2	3	31	id-1295_gender-F_age-26	trustworthiness	-0.29500000000000004	1.151
id-1274_gender-F_age-33	2	4	2	3	32	id-1274_gender-F_age-33	trustworthiness	-0.24750000000000005	0.501
id-1354_gender-F_age-23	2	4	2	3	33	id-1354_gender-F_age-23	trustworthiness	-0.31499999999999995	0.643
id-1370_gender-M_age-19	2	4	2	3	34	id-1370_gender-M_age-19	trustworthiness	0.3700000000000001	1.785
id-1347_gender-F_age-27	2	4	2	3	35	id-1347_gender-F_age-27	trustworthiness	-0.4625	1.76
id-1297_gender-F_age-22	2	4	2	3	36	id-1297_gender-F_age-22	trustworthiness	0.0774999999999999	0.8590000000000001
id-1291_gender-F_age-24	2	4	2	3	37	id-1291_gender-F_age-24	trustworthiness	0.2350000000000001	0.934
id-1342_gender-M_age-19	2	4	2	3	38	id-1342_gender-M_age-19	trustworthiness	-0.6375	0.8009999999999999
id-1339_gender-F_age-30	2	4	2	3	39	id-1339_gender-F_age-30	trustworthiness	0.3500000000000001	0.8009999999999999
id-1373_gender-F_age-30	2	4	2	3	40	id-1373_gender-F_age-30	trustworthiness	-0.1875	0.551
id-1318_gender-M_age-35	2	4	2	3	41	id-1318_gender-M_age-35	trustworthiness	-0.545	0.718
id-1315_gender-M_age-16	2	4	2	3	42	id-1315_gender-M_age-16	trustworthiness	-0.515	0.659
id-1341_gender-M_age-19	2	4	2	3	43	id-1341_gender-M_age-19	trustworthiness	0.0	0.309
id-1280_gender-M_age-18	2	4	2	3	44	id-1280_gender-M_age-18	trustworthiness	-0.585	1.043
id-1335_gender-M_age-23	2	4	2	3	45	id-1335_gender-M_age-23	trustworthiness	0.11499999999999999	0.56
id-1310_gender-F_age-28	2	4	2	3	46	id-1310_gender-F_age-28	trustworthiness	0.3125	0.659
id-1360_gender-F_age-20	2	4	2	3	47	id-1360_gender-F_age-20	trustworthiness	-0.4	0.551
id-1302_gender-F_age-30	2	4	2	3	48	id-1302_gender-F_age-30	trustworthiness	-0.475	0.701
id-1260_gender-F_age-22	2	4	2	3	49	id-1260_gender-F_age-22	trustworthiness	-0.21750000000000003	0.584
id-1307_gender-F_age-22	2	4	2	3	50	id-1307_gender-F_age-22	trustworthiness	-0.245	0.5760000000000001
id-1377_gender-M_age-20	2	4	2	4	1	id-1377_gender-M_age-20	attractiveness	0.24750000000000005	1.001
id-1309_gender-M_age-22	2	4	2	4	2	id-1309_gender-M_age-22	attractiveness	-0.505	0.759
id-1296_gender-F_age-23	2	4	2	4	3	id-1296_gender-F_age-23	attractiveness	-0.385	0.8009999999999999
id-1311_gender-F_age-22	2	4	2	4	4	id-1311_gender-F_age-22	attractiveness	0.4075	1.051
id-1363_gender-M_age-19	2	4	2	4	5	id-1363_gender-M_age-19	attractiveness	0.0	0.309
id-1297_gender-F_age-22	2	4	2	4	6	id-1297_gender-F_age-22	attractiveness	-0.20750000000000002	0.601
id-1344_gender-M_age-25	2	4	2	4	7	id-1344_gender-M_age-25	attractiveness	-0.725	0.6759999999999999
id-1307_gender-F_age-22	2	4	2	4	8	id-1307_gender-F_age-22	attractiveness	-0.48750000000000004	1.2429999999999999
id-1323_gender-F_age-23	2	4	2	4	9	id-1323_gender-F_age-23	attractiveness	-0.22250000000000003	0.8009999999999999
id-1273_gender-F_age-20	2	4	2	4	10	id-1273_gender-F_age-20	attractiveness	0.0024999999999999467	0.309
id-1362_gender-F_age-24	2	4	2	4	11	id-1362_gender-F_age-24	attractiveness	-0.20999999999999996	0.7340000000000001
id-1269_gender-F_age-23	2	4	2	4	12	id-1269_gender-F_age-23	attractiveness	0.0	0.309
id-1280_gender-M_age-18	2	4	2	4	13	id-1280_gender-M_age-18	attractiveness	-0.57	1.393
id-1290_gender-F_age-23	2	4	2	4	14	id-1290_gender-F_age-23	attractiveness	0.2649999999999999	0.759
id-1289_gender-F_age-20	2	4	2	4	15	id-1289_gender-F_age-20	attractiveness	-0.43500000000000005	0.601
id-1347_gender-F_age-27	2	4	2	4	16	id-1347_gender-F_age-27	attractiveness	-0.7875	0.843
id-1342_gender-M_age-19	2	4	2	4	17	id-1342_gender-M_age-19	attractiveness	-0.5425	0.9179999999999999
id-1274_gender-F_age-33	2	4	2	4	18	id-1274_gender-F_age-33	attractiveness	-0.1925	0.7090000000000001
id-1380_gender-F_age-21	2	4	2	4	19	id-1380_gender-F_age-21	attractiveness	-0.15249999999999997	1.268
id-1355_gender-F_age-19	2	4	2	4	20	id-1355_gender-F_age-19	attractiveness	-0.4025000000000001	2.9760000000000004
id-1302_gender-F_age-30	2	4	2	4	21	id-1302_gender-F_age-30	attractiveness	-0.15000000000000002	0.659
id-1310_gender-F_age-28	2	4	2	4	22	id-1310_gender-F_age-28	attractiveness	0.14500000000000002	0.6759999999999999
id-1360_gender-F_age-20	2	4	2	4	23	id-1360_gender-F_age-20	attractiveness	-0.25249999999999995	0.61
id-1370_gender-M_age-19	2	4	2	4	24	id-1370_gender-M_age-19	attractiveness	0.42999999999999994	1.7009999999999998
id-1358_gender-F_age-32	2	4	2	4	25	id-1358_gender-F_age-32	attractiveness	0.3999999999999999	1.034
id-1354_gender-F_age-23	2	4	2	4	26	id-1354_gender-F_age-23	attractiveness	-0.21750000000000003	2.451
id-1341_gender-M_age-19	2	4	2	4	27	id-1341_gender-M_age-19	attractiveness	-0.015000000000000013	0.309
id-1270_gender-F_age-30	2	4	2	4	28	id-1270_gender-F_age-30	attractiveness	0.0	0.309
id-1294_gender-F_age-26	2	4	2	4	29	id-1294_gender-F_age-26	attractiveness	0.45999999999999996	0.851
id-1306_gender-F_age-21	2	4	2	4	30	id-1306_gender-F_age-21	attractiveness	0.0	0.309
id-1376_gender-F_age-19	2	4	2	4	31	id-1376_gender-F_age-19	attractiveness	0.0	0.301
id-1295_gender-F_age-26	2	4	2	4	32	id-1295_gender-F_age-26	attractiveness	-0.16000000000000003	0.593
id-1367_gender-M_age-20	2	4	2	4	33	id-1367_gender-M_age-20	attractiveness	-0.1875	0.785
id-1335_gender-M_age-23	2	4	2	4	34	id-1335_gender-M_age-23	attractiveness	0.3075000000000001	1.1179999999999999
id-1279_gender-F_age-19	2	4	2	4	35	id-1279_gender-F_age-19	attractiveness	0.15250000000000008	0.7759999999999999
id-1345_gender-M_age-18	2	4	2	4	36	id-1345_gender-M_age-18	attractiveness	0.49249999999999994	1.235
id-1373_gender-F_age-30	2	4	2	4	37	id-1373_gender-F_age-30	attractiveness	-0.3375	1.11
id-1378_gender-F_age-19	2	4	2	4	38	id-1378_gender-F_age-19	attractiveness	-0.007499999999999951	0.451
id-1366_gender-F_age-24	2	4	2	4	39	id-1366_gender-F_age-24	attractiveness	-0.5925	0.851
id-1264_gender-F_age-26	2	4	2	4	40	id-1264_gender-F_age-26	attractiveness	-0.375	1.001
id-1291_gender-F_age-24	2	4	2	4	41	id-1291_gender-F_age-24	attractiveness	0.18999999999999995	0.551
id-1266_gender-M_age-21	2	4	2	4	42	id-1266_gender-M_age-21	attractiveness	-0.275	0.685
id-1318_gender-M_age-35	2	4	2	4	43	id-1318_gender-M_age-35	attractiveness	-0.49249999999999994	0.618
id-1260_gender-F_age-22	2	4	2	4	44	id-1260_gender-F_age-22	attractiveness	-0.31999999999999995	1.068
id-1356_gender-F_age-20	2	4	2	4	45	id-1356_gender-F_age-20	attractiveness	0.10250000000000004	0.585
id-1285_gender-F_age-19	2	4	2	4	46	id-1285_gender-F_age-19	attractiveness	-0.37	1.401
id-1361_gender-F_age-19	2	4	2	4	47	id-1361_gender-F_age-19	attractiveness	0.42999999999999994	0.993
id-1315_gender-M_age-16	2	4	2	4	48	id-1315_gender-M_age-16	attractiveness	-0.485	0.601
id-1293_gender-F_age-31	2	4	2	4	49	id-1293_gender-F_age-31	attractiveness	-0.3025	0.9179999999999999
id-1339_gender-F_age-30	2	4	2	4	50	id-1339_gender-F_age-30	attractiveness	0.4175	0.684
