	rep	session	run	block	trial	data_split	trial_type	rating_type	rating	rating_intensity	rating_RT
id-1344_AU13-66_AU14-66_AU24-33_AU9-33	1	1	1	1	1	test	id-1344_AU13-66_AU14-66_AU24-33_AU9-33	valence	-0.4347915046855179		4.777413101539423
id-1344_AU13-66_AU14-66_AU24-33_AU9-33	1	1	1	1	1	test	id-1344_AU13-66_AU14-66_AU24-33_AU9-33	arousal	0.1875038363956296		4.777413101539423
id-1269_AU14-100_AU20-100_AU5-66	1	1	1	1	2	train	id-1269_AU14-100_AU20-100_AU5-66	valence	-0.4619659737283627		2.604119073952461
id-1269_AU14-100_AU20-100_AU5-66	1	1	1	1	2	train	id-1269_AU14-100_AU20-100_AU5-66	arousal	0.1277200045013709		2.604119073952461
id-1361_AU1-66_AU17-66_AU6-66_AU7-100	1	1	1	1	3	train	id-1361_AU1-66_AU17-66_AU6-66_AU7-100	valence	-0.5081625711011989		3.77743392964112
id-1361_AU1-66_AU17-66_AU6-66_AU7-100	1	1	1	1	3	train	id-1361_AU1-66_AU17-66_AU6-66_AU7-100	arousal	0.0027174469042844872		3.77743392964112
id-1355_AU13-66_AU2-66_AU6-33	1	1	1	1	4	test_extra	id-1355_AU13-66_AU2-66_AU6-33	valence	-0.6032732127511561		1.7281244566584064
id-1355_AU13-66_AU2-66_AU6-33	1	1	1	1	4	test_extra	id-1355_AU13-66_AU2-66_AU6-33	arousal	0.0		1.7281244566584064
id-1264_AU10Open-33_AU25-66_AU4-66	1	1	1	1	5	test	id-1264_AU10Open-33_AU25-66_AU4-66	valence	-0.5081625711011989		2.5690025935509766
id-1264_AU10Open-33_AU25-66_AU4-66	1	1	1	1	5	test	id-1264_AU10Open-33_AU25-66_AU4-66	arousal	0.09239319474567256		2.5690025935509766
id-1358_AU13-33_AU15-33	1	1	1	1	6	test_extra	id-1358_AU13-33_AU15-33	valence	-0.07880596022425011		6.452688213586953
id-1358_AU13-33_AU15-33	1	1	1	1	6	test_extra	id-1358_AU13-33_AU15-33	arousal	0.04347915046855179		6.452688213586953
id-1297_AU11-100_AU24-33	1	1	1	1	7	test	id-1297_AU11-100_AU24-33	valence	-0.11956766378851742		2.8356674893257146
id-1297_AU11-100_AU24-33	1	1	1	1	7	test	id-1297_AU11-100_AU24-33	arousal	0.04619659737283628		2.8356674893257146
id-1360_AU1-100_AU13-66_AU27i-100_AU4-33_AU9-100	1	1	1	1	8	test_extra	id-1360_AU1-100_AU13-66_AU27i-100_AU4-33_AU9-100	valence	-0.1250025575970864		4.88574579091437
id-1360_AU1-100_AU13-66_AU27i-100_AU4-33_AU9-100	1	1	1	1	8	test_extra	id-1360_AU1-100_AU13-66_AU27i-100_AU4-33_AU9-100	arousal	0.7962119429553548		4.88574579091437
id-1264_AU22-100_AU24-66_AU25-100_AU9-100	1	1	1	1	9	test_extra	id-1264_AU22-100_AU24-66_AU25-100_AU9-100	valence	-0.4266391639726645		4.6274737143321545
id-1264_AU22-100_AU24-66_AU25-100_AU9-100	1	1	1	1	9	test_extra	id-1264_AU22-100_AU24-66_AU25-100_AU9-100	arousal	0.1684817080656382		4.6274737143321545
id-1344_AU12-66_AU22-66_AU26-100_AU27i-33	1	1	1	1	10	test_extra	id-1344_AU12-66_AU22-66_AU26-100_AU27i-33	valence	-0.05978383189425871		6.4360592387420175
id-1344_AU12-66_AU22-66_AU26-100_AU27i-33	1	1	1	1	10	test_extra	id-1344_AU12-66_AU22-66_AU26-100_AU27i-33	arousal	0.14130723902279332		6.4360592387420175
id-1362_AU13-100_AU15-66_AU43-100_AU7-33	1	1	1	1	11	test_extra	id-1362_AU13-100_AU15-66_AU43-100_AU7-33	valence	0.0		4.669125388794782
id-1362_AU13-100_AU15-66_AU43-100_AU7-33	1	1	1	1	11	test_extra	id-1362_AU13-100_AU15-66_AU43-100_AU7-33	arousal	0.8396910934239064		4.669125388794782
id-1294_AU13-100_AU2-66_AU6-33	1	1	1	1	12	test_extra	id-1294_AU13-100_AU2-66_AU6-33	valence	-0.4646834206326473		2.577323570891167
id-1294_AU13-100_AU2-66_AU6-33	1	1	1	1	12	test_extra	id-1294_AU13-100_AU2-66_AU6-33	arousal	0.02717446904284487		2.577323570891167
id-1339_AU20-100_AU43-33_AU9-100	1	1	1	1	13	test_extra	id-1339_AU20-100_AU43-33_AU9-100	valence	-0.05978383189425871		4.28580199660064
id-1339_AU20-100_AU43-33_AU9-100	1	1	1	1	13	test_extra	id-1339_AU20-100_AU43-33_AU9-100	arousal	0.7690374739125099		4.28580199660064
id-1295_AU11-33_AU12-100_AU13-100_AU20-33_AU9-66	1	1	1	1	14	test	id-1295_AU11-33_AU12-100_AU13-100_AU20-33_AU9-66	valence	-0.8614306686581823		3.685709990728357
id-1295_AU11-33_AU12-100_AU13-100_AU20-33_AU9-66	1	1	1	1	14	test	id-1295_AU11-33_AU12-100_AU13-100_AU20-33_AU9-66	arousal	0.09782808855424154		3.685709990728357
id-1344_AU13-100_AU17-100_AU9-66	1	1	1	1	15	train	id-1344_AU13-100_AU17-100_AU9-66	valence	-0.7011013013053977		1.7188209362866471
id-1344_AU13-100_AU17-100_AU9-66	1	1	1	1	15	train	id-1344_AU13-100_AU17-100_AU9-66	arousal	0.0842408540328191		1.7188209362866471
id-1341_AU27i-66_AU43-33	1	1	1	1	16	test_extra	id-1341_AU27i-66_AU43-33	valence	0.0054348938085689745		4.3690836118476
id-1341_AU27i-66_AU43-33	1	1	1	1	16	test_extra	id-1341_AU27i-66_AU43-33	arousal	0.4538136330155093		4.3690836118476
id-1358_AU2-66_AU22-33_AU7-66	1	1	1	1	17	test_extra	id-1358_AU2-66_AU22-33_AU7-66	valence	-0.2201131992470434		3.7940967124231975
id-1358_AU2-66_AU22-33_AU7-66	1	1	1	1	17	test_extra	id-1358_AU2-66_AU22-33_AU7-66	arousal	0.03804425665998282		3.7940967124231975
id-1291_AU1-100_AU14-100_AU24-66	1	1	1	1	18	test_extra	id-1291_AU1-100_AU14-100_AU24-66	valence	-0.6277302348897165		2.7106200978523702
id-1291_AU1-100_AU14-100_AU24-66	1	1	1	1	18	test_extra	id-1291_AU1-100_AU14-100_AU24-66	arousal	0.0815234071285346		2.7106200978523702
id-1297_AU2-66_AU22-66	1	1	1	1	19	test_extra	id-1297_AU2-66_AU22-66	valence	-0.08695830093710358		5.2360186088517375
id-1297_AU2-66_AU22-66	1	1	1	1	19	test_extra	id-1297_AU2-66_AU22-66	arousal	0.26359234971559525		5.2360186088517375
id-1361_AU2-100_AU20-66_AU6-100	1	1	1	1	20	test_extra	id-1361_AU2-100_AU20-66_AU6-100	valence	-0.2472876682898883		4.619299741127179
id-1361_AU2-100_AU20-66_AU6-100	1	1	1	1	20	test_extra	id-1361_AU2-100_AU20-66_AU6-100	arousal	0.06521872570282768		4.619299741127179
id-1355_AU13-33_AU15-100_AU2-100_AU20-66_AU4-33	1	1	1	1	21	train	id-1355_AU13-33_AU15-100_AU2-100_AU20-66_AU4-33	valence	-0.2201131992470434		5.778675465582638
id-1355_AU13-33_AU15-100_AU2-100_AU20-66_AU4-33	1	1	1	1	21	train	id-1355_AU13-33_AU15-100_AU2-100_AU20-66_AU4-33	arousal	0.14130723902279332		5.778675465582638
id-1323_AU11-66_AU4-33_AU5-100_AU9-66	1	1	1	1	22	test_extra	id-1323_AU11-66_AU4-33_AU5-100_AU9-66	valence	-0.26359234971559525		9.061458896798284
id-1323_AU11-66_AU4-33_AU5-100_AU9-66	1	1	1	1	22	test_extra	id-1323_AU11-66_AU4-33_AU5-100_AU9-66	arousal	0.04347915046855179		9.061458896798284
id-1269_AU17-33_AU24-33_AU6-66	1	1	1	1	23	train	id-1269_AU17-33_AU24-33_AU6-66	valence	-0.1277200045013709		5.994351056739106
id-1269_AU17-33_AU24-33_AU6-66	1	1	1	1	23	train	id-1269_AU17-33_AU24-33_AU6-66	arousal	0.09511064164995704		5.994351056739106
id-1347_AU20-100_AU5-100	1	1	1	1	24	test_extra	id-1347_AU20-100_AU5-100	valence	-0.0625012787985432		3.468818521432695
id-1347_AU20-100_AU5-100	1	1	1	1	24	test_extra	id-1347_AU20-100_AU5-100	arousal	0.23098298686418134		3.468818521432695
id-1367_AU11-33_AU13-33_AU14-66_AU5-33	1	1	1	1	25	test_extra	id-1367_AU11-33_AU13-33_AU14-66_AU5-33	valence	-0.04619659737283628		2.5022593961912207
id-1367_AU11-33_AU13-33_AU14-66_AU5-33	1	1	1	1	25	test_extra	id-1367_AU11-33_AU13-33_AU14-66_AU5-33	arousal	0.1250025575970864		2.5022593961912207
id-1370_AU10Open-100_AU12-100_AU24-66	1	1	1	1	26	test_extra	id-1370_AU10Open-100_AU12-100_AU24-66	valence	-0.4293566108769489		2.0021196366142253
id-1370_AU10Open-100_AU12-100_AU24-66	1	1	1	1	26	test_extra	id-1370_AU10Open-100_AU12-100_AU24-66	arousal	0.4809881020583541		2.0021196366142253
id-1380_AU5-66	1	1	1	1	27	test_extra	id-1380_AU5-66	valence	-0.01630468142570692		4.31077488988376
id-1380_AU5-66	1	1	1	1	27	test_extra	id-1380_AU5-66	arousal	0.1032629823628105		4.31077488988376
id-1335_AU11-100_AU16Open-100_AU5-33	1	1	1	1	28	train	id-1335_AU11-100_AU16Open-100_AU5-33	valence	-0.03532680975569833		1.768832527577615
id-1335_AU11-100_AU16Open-100_AU5-33	1	1	1	1	28	train	id-1335_AU11-100_AU16Open-100_AU5-33	arousal	0.1847863894913451		1.768832527577615
id-1339_AU10Open-100_AU12-33_AU20-100_AU27i-33	1	1	1	1	29	test	id-1339_AU10Open-100_AU12-33_AU20-100_AU27i-33	valence	-0.07065361951139666		3.4785503762323065
id-1339_AU10Open-100_AU12-33_AU20-100_AU27i-33	1	1	1	1	29	test	id-1339_AU10Open-100_AU12-33_AU20-100_AU27i-33	arousal	0.3369634161312764		3.4785503762323065
id-1280_AU15-100_AU26-66_AU43-66	1	1	1	1	30	test_extra	id-1280_AU15-100_AU26-66_AU43-66	valence	-0.024457022138560384		3.2022408621996874
id-1280_AU15-100_AU26-66_AU43-66	1	1	1	1	30	test_extra	id-1280_AU15-100_AU26-66_AU43-66	arousal	0.13587234521422434		3.2022408621996874
id-1289_AU17-33_AU26-66	1	1	1	1	31	test	id-1289_AU17-33_AU26-66	valence	-0.0054348938085689745		4.510731301797931
id-1289_AU17-33_AU26-66	1	1	1	1	31	test	id-1289_AU17-33_AU26-66	arousal	0.0815234071285346		4.510731301797931
id-1360_AU1-100_AU17-100_AU2-66	1	1	1	1	32	train	id-1360_AU1-100_AU17-100_AU2-66	valence	-0.02717446904284487		3.902360880361812
id-1360_AU1-100_AU17-100_AU2-66	1	1	1	1	32	train	id-1360_AU1-100_AU17-100_AU2-66	arousal	0.1657642611613537		3.902360880361812
id-1266_AU17-100_AU20-66	1	1	1	1	33	test_extra	id-1266_AU17-100_AU20-66	valence	0.0027174469042844872		5.735899979234091
id-1266_AU17-100_AU20-66	1	1	1	1	33	test_extra	id-1266_AU17-100_AU20-66	arousal	0.105980429267095		5.735899979234091
id-1296_AU13-66_AU14-100_AU17-66	1	1	1	1	34	test_extra	id-1296_AU13-66_AU14-100_AU17-66	valence	-0.07065361951139666		4.485829042943807
id-1296_AU13-66_AU14-100_AU17-66	1	1	1	1	34	test_extra	id-1296_AU13-66_AU14-100_AU17-66	arousal	0.1440246859270778		4.485829042943807
id-1289_AU11-100_AU7-100	1	1	1	1	35	test_extra	id-1289_AU11-100_AU7-100	valence	-0.07065361951139666		6.0526932847787975
id-1289_AU11-100_AU7-100	1	1	1	1	35	test_extra	id-1289_AU11-100_AU7-100	arousal	0.11413276997994845		6.0526932847787975
id-1291_AU20-33_AU24-100_AU25-33_AU27i-100	1	1	1	1	36	test	id-1291_AU20-33_AU24-100_AU25-33_AU27i-100	valence	0.0027174469042844872		2.2354828134957643
id-1291_AU20-33_AU24-100_AU25-33_AU27i-100	1	1	1	1	36	test	id-1291_AU20-33_AU24-100_AU25-33_AU27i-100	arousal	0.1277200045013709		2.2354828134957643
id-1354_AU20-100_AU43-66_AU9-33	1	1	1	2	1	train	id-1354_AU20-100_AU43-66_AU9-33	emotion	Walging	0.10268290902194227	1.4948322160635144
id-1345_AU12-66	1	1	1	2	2	train	id-1345_AU12-66	emotion	Geen van allen	0.0	9.470873258891515
id-1376_AU13-66_AU22-100_AU27i-33_AU6-33	1	1	1	2	3	test_extra	id-1376_AU13-66_AU22-100_AU27i-33_AU6-33	emotion	Verrassing	0.15477666014069189	2.2615755945371347
id-1360_AU14-33_AU5-66	1	1	1	2	4	train	id-1360_AU14-33_AU5-66	emotion	Geen van allen	0.0	5.011981893436313
id-1345_AU1-100_AU20-33_AU4-33_AU7-33_AU9-33	1	1	1	2	5	test_extra	id-1345_AU1-100_AU20-33_AU4-33_AU7-33_AU9-33	emotion	Walging	0.041830862550409055	2.261565633270948
id-1373_AU1-33_AU15-100_AU4-66_AU7-66_AU9-66	1	1	1	2	6	test_extra	id-1373_AU1-33_AU15-100_AU4-66_AU7-66_AU9-66	emotion	Walging	0.017377817999931284	5.712121834127173
id-1291_AU10Open-66_AU15-33_AU20-100_AU4-100	1	1	1	2	7	train	id-1291_AU10Open-66_AU15-33_AU20-100_AU4-100	emotion	Walging	0.054668600573364284	1.7116289024015714
id-1260_AU12-66_AU20-100_AU22-66_AU43-66	1	1	1	2	8	train	id-1260_AU12-66_AU20-100_AU22-66_AU43-66	emotion	Geen van allen	0.0	1.0696047973469829
id-1335_AU43-66_AU5-66	1	1	1	2	9	test	id-1335_AU43-66_AU5-66	emotion	Blij	0.007702843024921228	2.037093338869454
id-1266_AU13-66_AU17-100_AU2-100_AU9-33	1	1	1	2	10	test	id-1266_AU13-66_AU17-100_AU2-100_AU9-33	emotion	Geen van allen	0.0	3.295109139249689
id-1289_AU10Open-33_AU2-66_AU24-66	1	1	1	2	11	train	id-1289_AU10Open-33_AU2-66_AU24-66	emotion	Boos	0.048029792537006816	1.2615327309067652
id-1280_AU11-33_AU16Open-66_AU25-66_AU7-33	1	1	1	2	12	test_extra	id-1280_AU11-33_AU16Open-66_AU25-66_AU7-33	emotion	Verrassing	0.02049170070767725	1.5865160080538772
id-1323_AU10Open-100_AU2-33_AU20-66_AU4-66	1	1	1	2	13	train	id-1323_AU10Open-100_AU2-33_AU20-66_AU4-66	emotion	Bang	0.04175853872472013	4.561971147344593
id-1274_AU15-100_AU16Open-66_AU24-33	1	1	1	2	14	test_extra	id-1274_AU15-100_AU16Open-66_AU24-33	emotion	Walging	0.02169616455537464	3.445140894556971
id-1279_AU12-100	1	1	1	2	15	train	id-1279_AU12-100	emotion	Blij	0.1034840196794254	1.6948601679796411
id-1344_AU10Open-66	1	1	1	2	16	train	id-1344_AU10Open-66	emotion	Boos	0.1002839782919136	1.8365609846769075
id-1356_AU15-100	1	1	1	2	17	test_extra	id-1356_AU15-100	emotion	Geen van allen	0.0	6.07006693970834
id-1339_AU16Open-66_AU24-100_AU43-33_AU7-100	1	1	1	2	18	train	id-1339_AU16Open-66_AU24-100_AU43-33_AU7-100	emotion	Geen van allen	0.0	6.9537531634559855
id-1378_AU25-33_AU4-66_AU43-33_AU7-33	1	1	1	2	19	test_extra	id-1378_AU25-33_AU4-66_AU43-33_AU7-33	emotion	Geen van allen	0.0	2.5366151981143052
id-1335_AU11-66_AU17-66_AU25-66_AU6-33	1	1	1	2	20	test_extra	id-1335_AU11-66_AU17-66_AU25-66_AU6-33	emotion	Geen van allen	0.0	2.486705936189537
id-1344_AU20-100_AU22-66_AU7-66	1	1	1	2	21	test_extra	id-1344_AU20-100_AU22-66_AU7-66	emotion	Geen van allen	0.0	3.2366304720562766
id-1307_AU10Open-66_AU17-33_AU22-33_AU9-100	1	1	1	2	22	test	id-1307_AU10Open-66_AU17-33_AU22-33_AU9-100	emotion	Verrassing	0.0680680754432657	3.6949455933754503
id-1291_AU10Open-66_AU13-33_AU4-33_AU6-100	1	1	1	2	23	test_extra	id-1291_AU10Open-66_AU13-33_AU4-33_AU6-100	emotion	Verrassing	0.048029792537006816	6.737072088169953
id-1347_AU11-33_AU4-100	1	1	1	2	24	test_extra	id-1347_AU11-33_AU4-100	emotion	Verrassing	0.027321740422718	3.5534334370095166
id-1309_AU11-66_AU24-66	1	1	1	2	25	test	id-1309_AU11-66_AU24-66	emotion	Verdrietig	0.023581034421486662	6.695512781814612
id-1363_AU1-100_AU25-66_AU5-66	1	1	1	2	26	test_extra	id-1363_AU1-100_AU25-66_AU5-66	emotion	Verrassing	0.06587404363837986	1.3531624905808712
id-1339_AU14-100_AU15-66_AU26-33	1	1	1	2	27	test_extra	id-1339_AU14-100_AU15-66_AU26-33	emotion	Verrassing	0.7162301643907029	1.019538871878467
id-1380_AU11-66_AU13-33	1	1	1	2	28	test_extra	id-1380_AU11-66_AU13-33	emotion	Walging	0.026958708731859644	2.2699303798108303
id-1279_AU22-33_AU26-33_AU4-33	1	1	1	2	29	test	id-1279_AU22-33_AU26-33_AU4-33	emotion	Verrassing	0.1971513949888068	2.021195762416028
id-1290_AU11-100_AU15-33	1	1	1	2	30	test_extra	id-1290_AU11-100_AU15-33	emotion	Walging	0.01658422422726391	4.4034596381570745
id-1376_AU12-33_AU17-100_AU22-100_AU26-100	1	1	1	2	31	train	id-1376_AU12-33_AU17-100_AU22-100_AU26-100	emotion	Blij	0.07496761255799951	1.3781474581264774
id-1344_AU2-33_AU20-100_AU24-100	1	1	1	2	32	test	id-1344_AU2-33_AU20-100_AU24-100	emotion	Walging	0.035665560440649835	4.270181222589599
id-1306_AU24-66_AU43-100_AU7-100	1	1	1	2	33	test	id-1306_AU24-66_AU43-100_AU7-100	emotion	Walging	0.0111277758714143	7.720644753491797
id-1323_AU22-66_AU7-100	1	1	1	2	34	train	id-1323_AU22-66_AU7-100	emotion	Geen van allen	0.0	4.486854449609382
id-1279_AU17-66_AU20-33_AU24-100_AU27i-66	1	1	1	2	35	test_extra	id-1279_AU17-66_AU20-33_AU24-100_AU27i-66	emotion	Verrassing	0.6630037157474932	1.4030871471913997
id-1377_AU14-33_AU5-100_AU6-66	1	1	1	2	36	test_extra	id-1377_AU14-33_AU5-100_AU6-66	emotion	Blij	0.2149497621561897	1.0449081027945797
id-1376_AU10Open-100_AU11-66_AU25-33_AU27i-66_AU9-100	1	1	1	3	1	train	id-1376_AU10Open-100_AU11-66_AU25-33_AU27i-66_AU9-100	valence	-0.8179515181896305		2.7522461145017587
id-1376_AU10Open-100_AU11-66_AU25-33_AU27i-66_AU9-100	1	1	1	3	1	train	id-1376_AU10Open-100_AU11-66_AU25-33_AU27i-66_AU9-100	arousal	0.6766442791668373		2.7522461145017587
id-1289_AU14-33_AU25-100_AU27i-66_AU7-33	1	1	1	3	2	train	id-1289_AU14-33_AU25-100_AU27i-66_AU7-33	valence	-0.0054348938085689745		6.486094676696666
id-1289_AU14-33_AU25-100_AU27i-66_AU7-33	1	1	1	3	2	train	id-1289_AU14-33_AU25-100_AU27i-66_AU7-33	arousal	0.4728357613455008		6.486094676696666
id-1341_AU10Open-66_AU11-33_AU25-33_AU9-100	1	1	1	3	3	test_extra	id-1341_AU10Open-66_AU11-33_AU25-33_AU9-100	valence	-0.6304476817940009		2.793890242548514
id-1341_AU10Open-66_AU11-33_AU25-33_AU9-100	1	1	1	3	3	test_extra	id-1341_AU10Open-66_AU11-33_AU25-33_AU9-100	arousal	0.17663404877849165		2.793890242548514
id-1370_AU11-66_AU2-100_AU25-66_AU7-66	1	1	1	3	4	test_extra	id-1370_AU11-66_AU2-100_AU25-66_AU7-66	valence	-0.05978383189425871		1.6437621950026369
id-1370_AU11-66_AU2-100_AU25-66_AU7-66	1	1	1	3	4	test_extra	id-1370_AU11-66_AU2-100_AU25-66_AU7-66	arousal	0.2364178806727504		1.6437621950026369
id-1294_AU11-66_AU20-33_AU25-33	1	1	1	3	5	test	id-1294_AU11-66_AU20-33_AU25-33	valence	-0.0625012787985432		3.3357115603794227
id-1294_AU11-66_AU20-33_AU25-33	1	1	1	3	5	test	id-1294_AU11-66_AU20-33_AU25-33	arousal	0.33424596922699185		3.3357115603794227
id-1260_AU14-100_AU17-33_AU2-66_AU27i-100	1	1	1	3	6	test_extra	id-1260_AU14-100_AU17-33_AU2-66_AU27i-100	valence	-0.06521872570282768		2.8190705112720025
id-1260_AU14-100_AU17-33_AU2-66_AU27i-100	1	1	1	3	6	test_extra	id-1260_AU14-100_AU17-33_AU2-66_AU27i-100	arousal	0.22283064615132792		2.8190705112720025
id-1295_AU10Open-33_AU11-66_AU17-33_AU5-100	1	1	1	3	7	test_extra	id-1295_AU10Open-33_AU11-66_AU17-33_AU5-100	valence	-0.06793617260711217		8.83644084577827
id-1295_AU10Open-33_AU11-66_AU17-33_AU5-100	1	1	1	3	7	test_extra	id-1295_AU10Open-33_AU11-66_AU17-33_AU5-100	arousal	0.26902724352416424		8.83644084577827
id-1269_AU10Open-66_AU20-66_AU26-66_AU43-66	1	1	1	3	8	test	id-1269_AU10Open-66_AU20-66_AU26-66_AU43-66	valence	-0.04347915046855179		2.2938845072712866
id-1269_AU10Open-66_AU20-66_AU26-66_AU43-66	1	1	1	3	8	test	id-1269_AU10Open-66_AU20-66_AU26-66_AU43-66	arousal	0.312506393992716		2.2938845072712866
id-1315_AU2-100_AU24-100	1	1	1	3	9	train	id-1315_AU2-100_AU24-100	valence	-0.01630468142570692		2.235575483453431
id-1315_AU2-100_AU24-100	1	1	1	3	9	train	id-1315_AU2-100_AU24-100	arousal	0.41305192945124203		2.235575483453431
id-1264_AU14-33_AU20-100_AU22-66_AU6-100	1	1	1	3	10	test_extra	id-1264_AU14-33_AU20-100_AU22-66_AU6-100	valence	-0.04347915046855179		3.961068354812596
id-1264_AU14-33_AU20-100_AU22-66_AU6-100	1	1	1	3	10	test_extra	id-1264_AU14-33_AU20-100_AU22-66_AU6-100	arousal	0.3967472480255351		3.961068354812596
id-1285_AU26-100_AU4-66_AU7-100_AU9-33	1	1	1	3	11	test_extra	id-1285_AU26-100_AU4-66_AU7-100_AU9-33	valence	-0.03804425665998282		1.9022075372340623
id-1285_AU26-100_AU4-66_AU7-100_AU9-33	1	1	1	3	11	test_extra	id-1285_AU26-100_AU4-66_AU7-100_AU9-33	arousal	0.13043745140565535		1.9022075372340623
id-1306_AU16Open-66_AU17-33_AU26-100	1	1	1	3	12	test_extra	id-1306_AU16Open-66_AU17-33_AU26-100	valence	-0.02717446904284487		3.0855618395362403
id-1306_AU16Open-66_AU17-33_AU26-100	1	1	1	3	12	test_extra	id-1306_AU16Open-66_AU17-33_AU26-100	arousal	0.42120427016409545		3.0855618395362403
id-1362_AU26-66_AU9-66	1	1	1	3	13	test_extra	id-1362_AU26-66_AU9-66	valence	0.0027174469042844872		7.752964834919112
id-1362_AU26-66_AU9-66	1	1	1	3	13	test_extra	id-1362_AU26-66_AU9-66	arousal	0.2744621373327332		7.752964834919112
id-1363_AU14-33_AU27i-66	1	1	1	3	14	train	id-1363_AU14-33_AU27i-66	valence	0.0054348938085689745		3.235755993664497
id-1363_AU14-33_AU27i-66	1	1	1	3	14	train	id-1363_AU14-33_AU27i-66	arousal	0.3260936285141384		3.235755993664497
id-1373_AU22-66_AU4-100	1	1	1	3	15	test_extra	id-1373_AU22-66_AU4-100	valence	-0.013587234521422437		2.977510480457568
id-1373_AU22-66_AU4-100	1	1	1	3	15	test_extra	id-1373_AU22-66_AU4-100	arousal	0.21739575234275896		2.977510480457568
id-1266_AU13-66_AU15-100_AU16Open-66_AU22-66_AU9-100	1	1	1	3	16	test_extra	id-1266_AU13-66_AU15-100_AU16Open-66_AU22-66_AU9-100	valence	-0.029891915947129363		2.3520709773401904
id-1266_AU13-66_AU15-100_AU16Open-66_AU22-66_AU9-100	1	1	1	3	16	test_extra	id-1266_AU13-66_AU15-100_AU16Open-66_AU22-66_AU9-100	arousal	0.3478332037484143		2.3520709773401904
id-1378_AU14-100_AU22-33_AU4-33	1	1	1	3	17	train	id-1378_AU14-100_AU22-33_AU4-33	valence	0.0054348938085689745		3.135603918341076
id-1378_AU14-100_AU22-33_AU4-33	1	1	1	3	17	train	id-1378_AU14-100_AU22-33_AU4-33	arousal	0.13315489830993985		3.135603918341076
id-1323_AU25-33_AU26-66	1	1	1	3	18	test_extra	id-1323_AU25-33_AU26-66	valence	-0.0054348938085689745		4.5442708836417305
id-1323_AU25-33_AU26-66	1	1	1	3	18	test_extra	id-1323_AU25-33_AU26-66	arousal	0.11956766378851742		4.5442708836417305
id-1290_AU20-100_AU43-100	1	1	1	3	19	train	id-1290_AU20-100_AU43-100	valence	0.0		2.7773364299791865
id-1290_AU20-100_AU43-100	1	1	1	3	19	train	id-1290_AU20-100_AU43-100	arousal	0.14130723902279332		2.7773364299791865
id-1311_AU11-100_AU16Open-33_AU24-100_AU5-100	1	1	1	3	20	test_extra	id-1311_AU11-100_AU16Open-33_AU24-100_AU5-100	valence	-0.01902212832999141		2.918996797907312
id-1311_AU11-100_AU16Open-33_AU24-100_AU5-100	1	1	1	3	20	test_extra	id-1311_AU11-100_AU16Open-33_AU24-100_AU5-100	arousal	0.1440246859270778		2.918996797907312
id-1295_AU13-33_AU5-66	1	1	1	3	21	train	id-1295_AU13-33_AU5-66	valence	0.0		2.568946750092437
id-1295_AU13-33_AU5-66	1	1	1	3	21	train	id-1295_AU13-33_AU5-66	arousal	0.105980429267095		2.568946750092437
id-1290_AU24-33_AU25-66_AU4-66	1	1	1	3	22	test_extra	id-1290_AU24-33_AU25-66_AU4-66	valence	-0.03532680975569833		2.352289521470084
id-1290_AU24-33_AU25-66_AU4-66	1	1	1	3	22	test_extra	id-1290_AU24-33_AU25-66_AU4-66	arousal	0.09239319474567256		2.352289521470084
id-1293_AU22-66_AU25-100_AU5-33_AU9-33	1	1	1	3	23	test	id-1293_AU22-66_AU25-100_AU5-33_AU9-33	valence	-0.05434893808568974		6.6860824816940285
id-1293_AU22-66_AU25-100_AU5-33_AU9-33	1	1	1	3	23	test	id-1293_AU22-66_AU25-100_AU5-33_AU9-33	arousal	0.17663404877849165		6.6860824816940285
id-1354_AU16Open-66_AU27i-33_AU5-100	1	1	1	3	24	test_extra	id-1354_AU16Open-66_AU27i-33_AU5-100	valence	-0.00815234071285346		3.8525059526109535
id-1354_AU16Open-66_AU27i-33_AU5-100	1	1	1	3	24	test_extra	id-1354_AU16Open-66_AU27i-33_AU5-100	arousal	0.22283064615132792		3.8525059526109535
id-1362_AU5-33_AU6-66_AU7-33	1	1	1	3	25	test	id-1362_AU5-33_AU6-66_AU7-33	valence	-0.0054348938085689745		1.5520539526296488
id-1362_AU5-33_AU6-66_AU7-33	1	1	1	3	25	test	id-1362_AU5-33_AU6-66_AU7-33	arousal	0.1032629823628105		1.5520539526296488
id-1360_AU1-66_AU14-66_AU15-66	1	1	1	3	26	test_extra	id-1360_AU1-66_AU14-66_AU15-66	valence	-0.010869787617137949		3.6774321788725497
id-1360_AU1-66_AU14-66_AU15-66	1	1	1	3	26	test_extra	id-1360_AU1-66_AU14-66_AU15-66	arousal	0.19293873020419855		3.6774321788725497
id-1362_AU12-66_AU17-100_AU22-100	1	1	1	3	27	train	id-1362_AU12-66_AU17-100_AU22-100	valence	-0.013587234521422437		3.3856211241618435
id-1362_AU12-66_AU17-100_AU22-100	1	1	1	3	27	train	id-1362_AU12-66_AU17-100_AU22-100	arousal	0.1657642611613537		3.3856211241618435
id-1302_AU1-33_AU22-100	1	1	1	3	28	train	id-1302_AU1-33_AU22-100	valence	-0.0054348938085689745		2.3690691227311618
id-1302_AU1-33_AU22-100	1	1	1	3	28	train	id-1302_AU1-33_AU22-100	arousal	0.17391660187420716		2.3690691227311618
id-1360_AU10Open-66_AU20-33	1	1	1	3	29	train	id-1360_AU10Open-66_AU20-33	valence	-0.013587234521422437		7.4196626934281085
id-1360_AU10Open-66_AU20-33	1	1	1	3	29	train	id-1360_AU10Open-66_AU20-33	arousal	0.08695830093710358		7.4196626934281085
id-1309_AU15-33	1	1	1	3	30	test	id-1309_AU15-33	valence	0.0027174469042844872		2.893945421921672
id-1309_AU15-33	1	1	1	3	30	test	id-1309_AU15-33	arousal	0.04891404427712077		2.893945421921672
id-1361_AU13-33_AU5-66_AU6-66	1	1	1	3	31	train	id-1361_AU13-33_AU5-66_AU6-66	valence	-0.00815234071285346		4.535826145125611
id-1361_AU13-33_AU5-66_AU6-66	1	1	1	3	31	train	id-1361_AU13-33_AU5-66_AU6-66	arousal	0.0625012787985432		4.535826145125611
id-1302_AU15-66_AU24-100_AU25-100_AU43-33	1	1	1	3	32	test	id-1302_AU15-66_AU24-100_AU25-100_AU43-33	valence	-0.0054348938085689745		1.8604405535807016
id-1302_AU15-66_AU24-100_AU25-100_AU43-33	1	1	1	3	32	test	id-1302_AU15-66_AU24-100_AU25-100_AU43-33	arousal	0.0625012787985432		1.8604405535807016
id-1293_AU22-100_AU24-33	1	1	1	3	33	test_extra	id-1293_AU22-100_AU24-33	valence	-0.029891915947129363		2.27750577149709
id-1293_AU22-100_AU24-33	1	1	1	3	33	test_extra	id-1293_AU22-100_AU24-33	arousal	0.05978383189425871		2.27750577149709
id-1366_AU22-66_AU43-66	1	1	1	3	34	test_extra	id-1366_AU22-66_AU43-66	valence	-0.0054348938085689745		6.511183784750756
id-1366_AU22-66_AU43-66	1	1	1	3	34	test_extra	id-1366_AU22-66_AU43-66	arousal	0.029891915947129363		6.511183784750756
id-1345_AU17-66_AU25-66_AU6-100	1	1	1	3	35	test	id-1345_AU17-66_AU25-66_AU6-100	valence	-0.05434893808568974		1.7688666373651358
id-1345_AU17-66_AU25-66_AU6-100	1	1	1	3	35	test	id-1345_AU17-66_AU25-66_AU6-100	arousal	0.04347915046855179		1.7688666373651358
id-1306_AU22-66_AU25-33_AU43-33	1	1	1	3	36	test_extra	id-1306_AU22-66_AU25-33_AU43-33	valence	-0.03532680975569833		3.0106884381712007
id-1306_AU22-66_AU25-33_AU43-33	1	1	1	3	36	test_extra	id-1306_AU22-66_AU25-33_AU43-33	arousal	0.024457022138560384		3.0106884381712007
id-1367_AU10Open-33_AU14-33_AU17-66_AU43-66	1	1	1	4	1	test_extra	id-1367_AU10Open-33_AU14-33_AU17-66_AU43-66	valence	-0.1820689425870606		7.844481398395146
id-1367_AU10Open-33_AU14-33_AU17-66_AU43-66	1	1	1	4	1	test_extra	id-1367_AU10Open-33_AU14-33_AU17-66_AU43-66	arousal	0.057066384989974225		7.844481398395146
id-1358_AU11-33_AU2-100	1	1	1	4	2	test_extra	id-1358_AU11-33_AU2-100	valence	0.0027174469042844872		1.8024653830943864
id-1358_AU11-33_AU2-100	1	1	1	4	2	test_extra	id-1358_AU11-33_AU2-100	arousal	0.11413276997994845		1.8024653830943864
id-1310_AU27i-100_AU5-33_AU7-100	1	1	1	4	3	test_extra	id-1310_AU27i-100_AU5-33_AU7-100	valence	-0.0027174469042844872		1.7606887400288542
id-1310_AU27i-100_AU5-33_AU7-100	1	1	1	4	3	test_extra	id-1310_AU27i-100_AU5-33_AU7-100	arousal	0.312506393992716		1.7606887400288542
id-1273_AU12-100_AU16Open-33_AU20-100_AU22-66_AU5-66	1	1	1	4	4	test	id-1273_AU12-100_AU16Open-33_AU20-100_AU22-66_AU5-66	valence	0.0027174469042844872		3.0023626311267435
id-1273_AU12-100_AU16Open-33_AU20-100_AU22-66_AU5-66	1	1	1	4	4	test	id-1273_AU12-100_AU16Open-33_AU20-100_AU22-66_AU5-66	arousal	0.4619659737283627		3.0023626311267435
id-1367_AU14-66_AU2-100_AU20-66_AU9-33	1	1	1	4	5	test_extra	id-1367_AU14-66_AU2-100_AU20-66_AU9-33	valence	-0.100545535458526		1.8854834775811469
id-1367_AU14-66_AU2-100_AU20-66_AU9-33	1	1	1	4	5	test_extra	id-1367_AU14-66_AU2-100_AU20-66_AU9-33	arousal	0.3505506506526989		1.8854834775811469
id-1370_AU2-33_AU27i-66	1	1	1	4	6	test_extra	id-1370_AU2-33_AU27i-66	valence	0.1032629823628105		1.5687831438481226
id-1370_AU2-33_AU27i-66	1	1	1	4	6	test_extra	id-1370_AU2-33_AU27i-66	arousal	0.3641378851741212		1.5687831438481226
id-1318_AU22-33_AU25-33_AU26-66	1	1	1	4	7	test_extra	id-1318_AU22-33_AU25-33_AU26-66	valence	0.0054348938085689745		2.460589006623195
id-1318_AU22-33_AU25-33_AU26-66	1	1	1	4	7	test_extra	id-1318_AU22-33_AU25-33_AU26-66	arousal	0.23098298686418134		2.460589006623195
id-1306_AU17-100_AU5-66	1	1	1	4	8	test_extra	id-1306_AU17-100_AU5-66	valence	0.0		2.7189709589838458
id-1306_AU17-100_AU5-66	1	1	1	4	8	test_extra	id-1306_AU17-100_AU5-66	arousal	0.10869787617137948		2.7189709589838458
id-1290_AU24-100_AU9-33	1	1	1	4	9	test_extra	id-1290_AU24-100_AU9-33	valence	-0.00815234071285346		1.6521058115831693
id-1290_AU24-100_AU9-33	1	1	1	4	9	test_extra	id-1290_AU24-100_AU9-33	arousal	0.13858979211850886		1.6521058115831693
id-1315_AU12-66_AU25-66_AU6-33_AU7-100	1	1	1	4	10	test_extra	id-1315_AU12-66_AU25-66_AU6-33_AU7-100	valence	-0.15761192044850025		3.5941964458215807
id-1315_AU12-66_AU25-66_AU6-33_AU7-100	1	1	1	4	10	test_extra	id-1315_AU12-66_AU25-66_AU6-33_AU7-100	arousal	0.07608851331996565		3.5941964458215807
id-1376_AU1-33_AU5-100_AU7-66	1	1	1	4	11	train	id-1376_AU1-33_AU5-100_AU7-66	valence	0.013587234521422437		2.0855666692405066
id-1376_AU1-33_AU5-100_AU7-66	1	1	1	4	11	train	id-1376_AU1-33_AU5-100_AU7-66	arousal	0.08967574784138807		2.0855666692405066
id-1361_AU12-33_AU15-33_AU16Open-100_AU6-66	1	1	1	4	12	test	id-1361_AU12-33_AU15-33_AU16Open-100_AU6-66	valence	-0.15761192044850025		2.7281060434106617
id-1361_AU12-33_AU15-33_AU16Open-100_AU6-66	1	1	1	4	12	test	id-1361_AU12-33_AU15-33_AU16Open-100_AU6-66	arousal	0.07608851331996565		2.7281060434106617
id-1310_AU10Open-33_AU16Open-33_AU20-66_AU26-100	1	1	1	4	13	test_extra	id-1310_AU10Open-33_AU16Open-33_AU20-66_AU26-100	valence	-0.14674213283136228		2.4938400136197743
id-1310_AU10Open-33_AU16Open-33_AU20-66_AU26-100	1	1	1	4	13	test_extra	id-1310_AU10Open-33_AU16Open-33_AU20-66_AU26-100	arousal	0.09239319474567256		2.4938400136197743
id-1307_AU10Open-33_AU12-100_AU17-33	1	1	1	4	14	test_extra	id-1307_AU10Open-33_AU12-100_AU17-33	valence	-0.06793617260711217		3.5357002709461085
id-1307_AU10Open-33_AU12-100_AU17-33	1	1	1	4	14	test_extra	id-1307_AU10Open-33_AU12-100_AU17-33	arousal	0.17391660187420716		3.5357002709461085
id-1274_AU17-33_AU20-100_AU24-100_AU9-100	1	1	1	4	15	test_extra	id-1274_AU17-33_AU20-100_AU24-100_AU9-100	valence	-0.1277200045013709		2.6271884599045734
id-1274_AU17-33_AU20-100_AU24-100_AU9-100	1	1	1	4	15	test_extra	id-1274_AU17-33_AU20-100_AU24-100_AU9-100	arousal	0.15761192044850025		2.6271884599045734
id-1370_AU26-100_AU4-33_AU6-33	1	1	1	4	16	test_extra	id-1370_AU26-100_AU4-33_AU6-33	valence	-0.0027174469042844872		2.1272002323094057
id-1370_AU26-100_AU4-33_AU6-33	1	1	1	4	16	test_extra	id-1370_AU26-100_AU4-33_AU6-33	arousal	0.15489447354421576		2.1272002323094057
id-1306_AU1-66_AU27i-33	1	1	1	4	17	test_extra	id-1306_AU1-66_AU27i-33	valence	-0.00815234071285346		2.193982067306933
id-1306_AU1-66_AU27i-33	1	1	1	4	17	test_extra	id-1306_AU1-66_AU27i-33	arousal	0.3913123542169661		2.193982067306933
id-1290_AU14-66_AU16Open-100_AU27i-33	1	1	1	4	18	train	id-1290_AU14-66_AU16Open-100_AU27i-33	valence	0.0		2.8856407448365644
id-1290_AU14-66_AU16Open-100_AU27i-33	1	1	1	4	18	train	id-1290_AU14-66_AU16Open-100_AU27i-33	arousal	0.4429438453983714		2.8856407448365644
id-1273_AU1-100_AU14-66_AU25-33_AU5-100	1	1	1	4	19	test_extra	id-1273_AU1-100_AU14-66_AU25-33_AU5-100	valence	0.013587234521422437		2.777146864074893
id-1273_AU1-100_AU14-66_AU25-33_AU5-100	1	1	1	4	19	test_extra	id-1273_AU1-100_AU14-66_AU25-33_AU5-100	arousal	0.2771795842370177		2.777146864074893
id-1361_AU10Open-33_AU11-100_AU13-66_AU17-100_AU7-66	1	1	1	4	20	train	id-1361_AU10Open-33_AU11-100_AU13-66_AU17-100_AU7-66	valence	-0.13043745140565535		2.9857659549306845
id-1361_AU10Open-33_AU11-100_AU13-66_AU17-100_AU7-66	1	1	1	4	20	train	id-1361_AU10Open-33_AU11-100_AU13-66_AU17-100_AU7-66	arousal	0.06793617260711217		2.9857659549306845
id-1295_AU1-33_AU14-33_AU6-66	1	1	1	4	21	test_extra	id-1295_AU1-33_AU14-33_AU6-66	valence	-0.010869787617137949		3.460946102914022
id-1295_AU1-33_AU14-33_AU6-66	1	1	1	4	21	test_extra	id-1295_AU1-33_AU14-33_AU6-66	arousal	0.1032629823628105		3.460946102914022
id-1297_AU10Open-100_AU13-100_AU16Open-100_AU22-66_AU25-100	1	1	1	4	22	train	id-1297_AU10Open-100_AU13-100_AU16Open-100_AU22-66_AU25-100	valence	-0.05163149118140525		4.8192833201319445
id-1297_AU10Open-100_AU13-100_AU16Open-100_AU22-66_AU25-100	1	1	1	4	22	train	id-1297_AU10Open-100_AU13-100_AU16Open-100_AU22-66_AU25-100	arousal	0.11413276997994845		4.8192833201319445
id-1370_AU10Open-100_AU2-33_AU27i-66_AU5-66	1	1	1	4	23	test	id-1370_AU10Open-100_AU2-33_AU27i-66_AU5-66	valence	-0.0054348938085689745		3.0690828873885043
id-1370_AU10Open-100_AU2-33_AU27i-66_AU5-66	1	1	1	4	23	test	id-1370_AU10Open-100_AU2-33_AU27i-66_AU5-66	arousal	0.2472876682898883		3.0690828873885043
id-1290_AU10Open-33_AU14-66_AU24-66	1	1	1	4	24	test	id-1290_AU10Open-33_AU14-66_AU24-66	valence	-0.5788161906125957		1.8355361817339144
id-1290_AU10Open-33_AU14-66_AU24-66	1	1	1	4	24	test	id-1290_AU10Open-33_AU14-66_AU24-66	arousal	0.05434893808568974		1.8355361817339144
id-1345_AU25-100_AU43-66	1	1	1	4	25	test_extra	id-1345_AU25-100_AU43-66	valence	-0.0054348938085689745		3.3940537884227524
id-1345_AU25-100_AU43-66	1	1	1	4	25	test_extra	id-1345_AU25-100_AU43-66	arousal	0.1684817080656382		3.3940537884227524
id-1366_AU14-33_AU2-100_AU26-100_AU27i-100	1	1	1	4	26	test	id-1366_AU14-33_AU2-100_AU26-100_AU27i-100	valence	0.0054348938085689745		0.6452020506949339
id-1366_AU14-33_AU2-100_AU26-100_AU27i-100	1	1	1	4	26	test	id-1366_AU14-33_AU2-100_AU26-100_AU27i-100	arousal	0.6684919384539837		0.6452020506949339
id-1274_AU14-100_AU26-33	1	1	1	4	27	train	id-1274_AU14-100_AU26-33	valence	0.0027174469042844872		1.3447983477599337
id-1274_AU14-100_AU26-33	1	1	1	4	27	train	id-1274_AU14-100_AU26-33	arousal	0.09511064164995704		1.3447983477599337
id-1380_AU22-66_AU7-33	1	1	1	4	28	train	id-1380_AU22-66_AU7-33	valence	0.0054348938085689745		1.7198828675900586
id-1380_AU22-66_AU7-33	1	1	1	4	28	train	id-1380_AU22-66_AU7-33	arousal	0.02173957523427589		1.7198828675900586
id-1362_AU17-33_AU5-33	1	1	1	4	29	test_extra	id-1362_AU17-33_AU5-33	valence	-0.0054348938085689745		2.670444501862221
id-1362_AU17-33_AU5-33	1	1	1	4	29	test_extra	id-1362_AU17-33_AU5-33	arousal	0.07065361951139666		2.670444501862221
id-1377_AU13-66_AU14-100_AU9-66	1	1	1	4	30	test_extra	id-1377_AU13-66_AU14-100_AU9-66	valence	-0.029891915947129363		5.32743193738861
id-1377_AU13-66_AU14-100_AU9-66	1	1	1	4	30	test_extra	id-1377_AU13-66_AU14-100_AU9-66	arousal	0.1847863894913451		5.32743193738861
id-1373_AU11-33_AU13-100_AU16Open-66_AU43-33	1	1	1	4	31	test	id-1373_AU11-33_AU13-100_AU16Open-66_AU43-33	valence	-0.100545535458526		2.7118072996163387
id-1373_AU11-33_AU13-100_AU16Open-66_AU43-33	1	1	1	4	31	test	id-1373_AU11-33_AU13-100_AU16Open-66_AU43-33	arousal	0.029891915947129363		2.7118072996163387
id-1345_AU26-66_AU27i-100_AU9-100	1	1	1	4	32	test_extra	id-1345_AU26-66_AU27i-100_AU9-100	valence	-0.0054348938085689745		2.060821979499451
id-1345_AU26-66_AU27i-100_AU9-100	1	1	1	4	32	test_extra	id-1345_AU26-66_AU27i-100_AU9-100	arousal	0.6521872570282768		2.060821979499451
id-1335_AU11-66_AU14-100	1	1	1	4	33	train	id-1335_AU11-66_AU14-100	valence	0.09239319474567256		1.5858860334592464
id-1335_AU11-66_AU14-100	1	1	1	4	33	train	id-1335_AU11-66_AU14-100	arousal	0.3940298011212506		1.5858860334592464
id-1296_AU11-66_AU26-66_AU4-66_AU6-100	1	1	1	4	34	test_extra	id-1296_AU11-66_AU26-66_AU4-66_AU6-100	valence	0.0		2.244722038427426
id-1296_AU11-66_AU26-66_AU4-66_AU6-100	1	1	1	4	34	test_extra	id-1296_AU11-66_AU26-66_AU4-66_AU6-100	arousal	0.4972927834840611		2.244722038427426
id-1302_AU15-100_AU4-100_AU5-66_AU9-100	1	1	1	4	35	test_extra	id-1302_AU15-100_AU4-100_AU5-66_AU9-100	valence	-0.6657744915496994		1.360255515523022
id-1302_AU15-100_AU4-100_AU5-66_AU9-100	1	1	1	4	35	test_extra	id-1302_AU15-100_AU4-100_AU5-66_AU9-100	arousal	0.5788161906125957		1.360255515523022
id-1367_AU25-66_AU4-66_AU6-33	1	1	1	4	36	test	id-1367_AU25-66_AU4-66_AU6-33	valence	-0.1032629823628105		7.586273919110683
id-1367_AU25-66_AU4-66_AU6-33	1	1	1	4	36	test	id-1367_AU25-66_AU4-66_AU6-33	arousal	0.13315489830993985		7.586273919110683
id-1318_AU1-33_AU16Open-33_AU20-100_AU43-66	1	1	2	5	1	test_extra	id-1318_AU1-33_AU16Open-33_AU20-100_AU43-66	valence	-0.1630468142570692		5.919316765834083
id-1318_AU1-33_AU16Open-33_AU20-100_AU43-66	1	1	2	5	1	test_extra	id-1318_AU1-33_AU16Open-33_AU20-100_AU43-66	arousal	0.100545535458526		5.919316765834083
id-1378_AU12-100_AU13-33_AU2-100_AU27i-100	1	1	2	5	2	test_extra	id-1378_AU12-100_AU13-33_AU2-100_AU27i-100	valence	-0.03532680975569833		3.769097557618806
id-1378_AU12-100_AU13-33_AU2-100_AU27i-100	1	1	2	5	2	test_extra	id-1378_AU12-100_AU13-33_AU2-100_AU27i-100	arousal	0.6929489605925442		3.769097557618806
id-1310_AU16Open-100_AU27i-66_AU6-33_AU7-66	1	1	2	5	3	test_extra	id-1310_AU16Open-100_AU27i-66_AU6-33_AU7-66	valence	-0.42120427016409545		1.02717704972747
id-1310_AU16Open-100_AU27i-66_AU6-33_AU7-66	1	1	2	5	3	test_extra	id-1310_AU16Open-100_AU27i-66_AU6-33_AU7-66	arousal	0.3614204382698367		1.02717704972747
id-1355_AU12-66_AU13-100_AU27i-100_AU5-100	1	1	2	5	4	test_extra	id-1355_AU12-66_AU13-100_AU27i-100_AU5-100	valence	-0.7146885358268201		1.3187432987833745
id-1355_AU12-66_AU13-100_AU27i-100_AU5-100	1	1	2	5	4	test_extra	id-1355_AU12-66_AU13-100_AU27i-100_AU5-100	arousal	0.7065361951139666		1.3187432987833745
id-1291_AU15-66_AU20-66_AU7-100	1	1	2	5	5	train	id-1291_AU15-66_AU20-66_AU7-100	valence	-0.1820689425870606		0.6603920754205319
id-1291_AU15-66_AU20-66_AU7-100	1	1	2	5	5	train	id-1291_AU15-66_AU20-66_AU7-100	arousal	0.06521872570282768		0.6603920754205319
id-1291_AU4-100_AU43-33_AU7-66	1	1	2	5	6	test	id-1291_AU4-100_AU43-33_AU7-66	valence	-0.11413276997994845		2.6523098666039004
id-1291_AU4-100_AU43-33_AU7-66	1	1	2	5	6	test	id-1291_AU4-100_AU43-33_AU7-66	arousal	0.11141532307566396		2.6523098666039004
id-1290_AU22-33	1	1	2	5	7	train	id-1290_AU22-33	valence	0.0027174469042844872		2.068797331103269
id-1290_AU22-33	1	1	2	5	7	train	id-1290_AU22-33	arousal	0.0027174469042844872		2.068797331103269
id-1377_AU17-66_AU24-33_AU4-100	1	1	2	5	8	test	id-1377_AU17-66_AU24-33_AU4-100	valence	-0.01630468142570692		2.4523791124956915
id-1377_AU17-66_AU24-33_AU4-100	1	1	2	5	8	test	id-1377_AU17-66_AU24-33_AU4-100	arousal	0.13043745140565535		2.4523791124956915
id-1302_AU13-66_AU22-33	1	1	2	5	9	train	id-1302_AU13-66_AU22-33	valence	-0.04891404427712077		2.910601563857199
id-1302_AU13-66_AU22-33	1	1	2	5	9	train	id-1302_AU13-66_AU22-33	arousal	0.06793617260711217		2.910601563857199
id-1318_AU13-33_AU20-66_AU5-100_AU6-66	1	1	2	5	10	train	id-1318_AU13-33_AU20-66_AU5-100_AU6-66	valence	-0.1250025575970864		18.712663666614393
id-1318_AU13-33_AU20-66_AU5-100_AU6-66	1	1	2	5	10	train	id-1318_AU13-33_AU20-66_AU5-100_AU6-66	arousal	0.17935149568277614		18.712663666614393
id-1310_AU12-33_AU14-33_AU22-100_AU6-100	1	1	2	5	11	test	id-1310_AU12-33_AU14-33_AU22-100_AU6-100	valence	-0.17663404877849165		0.7935597096402489
id-1310_AU12-33_AU14-33_AU22-100_AU6-100	1	1	2	5	11	test	id-1310_AU12-33_AU14-33_AU22-100_AU6-100	arousal	0.1820689425870606		0.7935597096402489
id-1344_AU10Open-33_AU16Open-100	1	1	2	5	12	test_extra	id-1344_AU10Open-33_AU16Open-100	valence	-0.2364178806727504		2.152269417827484
id-1344_AU10Open-33_AU16Open-100	1	1	2	5	12	test_extra	id-1344_AU10Open-33_AU16Open-100	arousal	0.06793617260711217		2.152269417827484
id-1341_AU1-33_AU15-33_AU2-66_AU4-33	1	1	2	5	13	test	id-1341_AU1-33_AU15-33_AU2-66_AU4-33	valence	-0.0054348938085689745		2.360571559318487
id-1341_AU1-33_AU15-33_AU2-66_AU4-33	1	1	2	5	13	test	id-1341_AU1-33_AU15-33_AU2-66_AU4-33	arousal	0.09511064164995704		2.360571559318487
id-1376_AU1-100_AU13-33_AU14-33_AU27i-66	1	1	2	5	14	test	id-1376_AU1-100_AU13-33_AU14-33_AU27i-66	valence	-0.00815234071285346		3.86902776838906
id-1376_AU1-100_AU13-33_AU14-33_AU27i-66	1	1	2	5	14	test	id-1376_AU1-100_AU13-33_AU14-33_AU27i-66	arousal	0.3858774604083972		3.86902776838906
id-1363_AU1-33_AU15-100_AU2-66_AU22-66_AU5-100	1	1	2	5	15	test	id-1363_AU1-33_AU15-100_AU2-66_AU22-66_AU5-100	valence	0.0027174469042844872		12.403459638157074
id-1363_AU1-33_AU15-100_AU2-66_AU22-66_AU5-100	1	1	2	5	15	test	id-1363_AU1-33_AU15-100_AU2-66_AU22-66_AU5-100	arousal	0.22283064615132792		12.403459638157074
id-1285_AU11-33_AU17-33_AU5-100_AU7-33	1	1	2	5	16	test_extra	id-1285_AU11-33_AU17-33_AU5-100_AU7-33	valence	-0.06793617260711217		8.361324691381013
id-1285_AU11-33_AU17-33_AU5-100_AU7-33	1	1	2	5	16	test_extra	id-1285_AU11-33_AU17-33_AU5-100_AU7-33	arousal	0.08695830093710358		8.361324691381013
id-1280_AU13-100_AU17-100_AU4-100	1	1	2	5	17	test_extra	id-1280_AU13-100_AU17-100_AU4-100	valence	-0.0027174469042844872		2.2439821880507225
id-1280_AU13-100_AU17-100_AU4-100	1	1	2	5	17	test_extra	id-1280_AU13-100_AU17-100_AU4-100	arousal	0.4157693763555265		2.2439821880507225
id-1307_AU17-66_AU2-100_AU7-66	1	1	2	5	18	train	id-1307_AU17-66_AU2-100_AU7-66	valence	0.0027174469042844872		0.6936928887444083
id-1307_AU17-66_AU2-100_AU7-66	1	1	2	5	18	train	id-1307_AU17-66_AU2-100_AU7-66	arousal	0.17391660187420716		0.6936928887444083
id-1295_AU12-66_AU17-66_AU25-66_AU9-100	1	1	2	5	19	test_extra	id-1295_AU12-66_AU17-66_AU25-66_AU9-100	valence	-0.09511064164995704		4.9607882319432965
id-1295_AU12-66_AU17-66_AU25-66_AU9-100	1	1	2	5	19	test_extra	id-1295_AU12-66_AU17-66_AU25-66_AU9-100	arousal	0.1847863894913451		4.9607882319432965
id-1363_AU16Open-66_AU20-100_AU5-33	1	1	2	5	20	test_extra	id-1363_AU16Open-66_AU20-100_AU5-33	valence	0.0		1.943895132622856
id-1363_AU16Open-66_AU20-100_AU5-33	1	1	2	5	20	test_extra	id-1363_AU16Open-66_AU20-100_AU5-33	arousal	0.21467830543847446		1.943895132622856
id-1279_AU12-100_AU15-100_AU26-100	1	1	2	5	21	test_extra	id-1279_AU12-100_AU15-100_AU26-100	valence	0.04347915046855179		1.393848525975045
id-1279_AU12-100_AU15-100_AU26-100	1	1	2	5	21	test_extra	id-1279_AU12-100_AU15-100_AU26-100	arousal	0.4565310799197938		1.393848525975045
id-1309_AU1-66_AU2-66_AU9-33	1	1	2	5	22	train	id-1309_AU1-66_AU2-66_AU9-33	valence	-0.02173957523427589		2.018851846394682
id-1309_AU1-66_AU2-66_AU9-33	1	1	2	5	22	train	id-1309_AU1-66_AU2-66_AU9-33	arousal	0.1820689425870606		2.018851846394682
id-1370_AU1-33_AU26-66_AU7-100	1	1	2	5	23	test_extra	id-1370_AU1-33_AU26-66_AU7-100	valence	0.01902212832999141		2.20216479435112
id-1370_AU1-33_AU26-66_AU7-100	1	1	2	5	23	test_extra	id-1370_AU1-33_AU26-66_AU7-100	arousal	0.3641378851741212		2.20216479435112
id-1273_AU1-33_AU13-33_AU26-33	1	1	2	5	24	test	id-1273_AU1-33_AU13-33_AU26-33	valence	0.8097991774767771		1.935464279504231
id-1273_AU1-33_AU13-33_AU26-33	1	1	2	5	24	test	id-1273_AU1-33_AU13-33_AU26-33	arousal	0.029891915947129363		1.935464279504231
id-1318_AU1-33_AU13-66_AU26-66	1	1	2	5	25	test_extra	id-1318_AU1-33_AU13-66_AU26-66	valence	0.02173957523427589		1.5854172502549773
id-1318_AU1-33_AU13-66_AU26-66	1	1	2	5	25	test_extra	id-1318_AU1-33_AU13-66_AU26-66	arousal	0.22283064615132792		1.5854172502549773
id-1264_AU26-100_AU6-66_AU7-33	1	1	2	5	26	test_extra	id-1264_AU26-100_AU6-66_AU7-33	valence	-0.03804425665998282		2.735718563453702
id-1264_AU26-100_AU6-66_AU7-33	1	1	2	5	26	test_extra	id-1264_AU26-100_AU6-66_AU7-33	arousal	0.3315285223227074		2.735718563453702
id-1280_AU15-33_AU27i-66	1	1	2	5	27	test_extra	id-1280_AU15-33_AU27i-66	valence	-0.03804425665998282		2.8868862049130257
id-1280_AU15-33_AU27i-66	1	1	2	5	27	test_extra	id-1280_AU15-33_AU27i-66	arousal	0.100545535458526		2.8868862049130257
id-1347_AU10Open-100_AU25-100	1	1	2	5	28	test_extra	id-1347_AU10Open-100_AU25-100	valence	-0.04619659737283628		1.7103937054489506
id-1347_AU10Open-100_AU25-100	1	1	2	5	28	test_extra	id-1347_AU10Open-100_AU25-100	arousal	0.19022128329991408		1.7103937054489506
id-1363_AU16Open-66_AU4-33_AU6-66_AU9-100	1	1	2	5	29	test_extra	id-1363_AU16Open-66_AU4-33_AU6-66_AU9-100	valence	-0.1440246859270778		2.4118464202219907
id-1363_AU16Open-66_AU4-33_AU6-66_AU9-100	1	1	2	5	29	test_extra	id-1363_AU16Open-66_AU4-33_AU6-66_AU9-100	arousal	0.06521872570282768		2.4118464202219907
id-1302_AU2-33_AU43-66	1	1	2	5	30	test_extra	id-1302_AU2-33_AU43-66	valence	-0.04619659737283628		1.7104830549833423
id-1302_AU2-33_AU43-66	1	1	2	5	30	test_extra	id-1302_AU2-33_AU43-66	arousal	0.03532680975569833		1.7104830549833423
id-1380_AU17-33_AU27i-100_AU6-100	1	1	2	5	31	train	id-1380_AU17-33_AU27i-100_AU6-100	valence	-0.0054348938085689745		2.6022345835808665
id-1380_AU17-33_AU27i-100_AU6-100	1	1	2	5	31	train	id-1380_AU17-33_AU27i-100_AU6-100	arousal	0.2581574559070263		2.6022345835808665
id-1377_AU10Open-100_AU22-66_AU4-66_AU5-100_AU7-100	1	1	2	5	32	train	id-1377_AU10Open-100_AU22-66_AU4-66_AU5-100_AU7-100	valence	0.0		8.54476592836727
id-1377_AU10Open-100_AU22-66_AU4-66_AU5-100_AU7-100	1	1	2	5	32	train	id-1377_AU10Open-100_AU22-66_AU4-66_AU5-100_AU7-100	arousal	0.3505506506526989		8.54476592836727
id-1323_AU26-100	1	1	2	5	33	test_extra	id-1323_AU26-100	valence	-0.0407617035642673		1.0769420242249907
id-1323_AU26-100	1	1	2	5	33	test_extra	id-1323_AU26-100	arousal	0.2092434116299055		1.0769420242249907
id-1296_AU1-66_AU11-33	1	1	2	5	34	test_extra	id-1296_AU1-66_AU11-33	valence	-0.01902212832999141		1.7771335823854315
id-1296_AU1-66_AU11-33	1	1	2	5	34	test_extra	id-1296_AU1-66_AU11-33	arousal	0.20652596472562101		1.7771335823854315
id-1311_AU12-33_AU27i-33_AU43-66_AU7-33	1	1	2	5	35	test_extra	id-1311_AU12-33_AU27i-33_AU43-66_AU7-33	valence	-0.024457022138560384		2.277196066686884
id-1311_AU12-33_AU27i-33_AU43-66_AU7-33	1	1	2	5	35	test_extra	id-1311_AU12-33_AU27i-33_AU43-66_AU7-33	arousal	0.16032936735278475		2.277196066686884
id-1366_AU9-33	1	1	2	5	36	train	id-1366_AU9-33	valence	-0.0027174469042844872		2.835825058438786
id-1366_AU9-33	1	1	2	5	36	train	id-1366_AU9-33	arousal	0.20652596472562101		2.835825058438786
id-1345_AU12-66	1	1	2	6	1	train	id-1345_AU12-66	valence	0.0		4.177597294397857
id-1345_AU12-66	1	1	2	6	1	train	id-1345_AU12-66	arousal	0.1684817080656382		4.177597294397857
id-1291_AU10Open-66_AU15-33_AU20-100_AU4-100	1	1	2	6	2	train	id-1291_AU10Open-66_AU15-33_AU20-100_AU4-100	valence	-0.013587234521422437		4.302445460558373
id-1291_AU10Open-66_AU15-33_AU20-100_AU4-100	1	1	2	6	2	train	id-1291_AU10Open-66_AU15-33_AU20-100_AU4-100	arousal	0.2771795842370177		4.302445460558373
id-1274_AU15-100_AU16Open-66_AU24-33	1	1	2	6	3	test_extra	id-1274_AU15-100_AU16Open-66_AU24-33	valence	-0.029891915947129363		2.1772963434304984
id-1274_AU15-100_AU16Open-66_AU24-33	1	1	2	6	3	test_extra	id-1274_AU15-100_AU16Open-66_AU24-33	arousal	0.20380851782133647		2.1772963434304984
id-1339_AU16Open-66_AU24-100_AU43-33_AU7-100	1	1	2	6	4	train	id-1339_AU16Open-66_AU24-100_AU43-33_AU7-100	valence	-0.04619659737283628		4.002560950870247
id-1339_AU16Open-66_AU24-100_AU43-33_AU7-100	1	1	2	6	4	train	id-1339_AU16Open-66_AU24-100_AU43-33_AU7-100	arousal	0.21467830543847446		4.002560950870247
id-1266_AU13-66_AU17-100_AU2-100_AU9-33	1	1	2	6	5	test	id-1266_AU13-66_AU17-100_AU2-100_AU9-33	valence	0.03804425665998282		2.818982067306933
id-1266_AU13-66_AU17-100_AU2-100_AU9-33	1	1	2	6	5	test	id-1266_AU13-66_AU17-100_AU2-100_AU9-33	arousal	0.2608749028113107		2.818982067306933
id-1376_AU12-33_AU17-100_AU22-100_AU26-100	1	1	2	6	6	train	id-1376_AU12-33_AU17-100_AU22-100_AU26-100	valence	-0.02173957523427589		3.627464356777637
id-1376_AU12-33_AU17-100_AU22-100_AU26-100	1	1	2	6	6	train	id-1376_AU12-33_AU17-100_AU22-100_AU26-100	arousal	0.19022128329991408		3.627464356777637
id-1290_AU11-100_AU15-33	1	1	2	6	7	test_extra	id-1290_AU11-100_AU15-33	valence	-0.11413276997994845		2.568915357012884
id-1290_AU11-100_AU15-33	1	1	2	6	7	test_extra	id-1290_AU11-100_AU15-33	arousal	0.04619659737283628		2.568915357012884
id-1344_AU2-33_AU20-100_AU24-100	1	1	2	6	8	test	id-1344_AU2-33_AU20-100_AU24-100	valence	-0.05434893808568974		3.1205527476195134
id-1344_AU2-33_AU20-100_AU24-100	1	1	2	6	8	test	id-1344_AU2-33_AU20-100_AU24-100	arousal	0.312506393992716		3.1205527476195134
id-1323_AU22-66_AU7-100	1	1	2	6	9	train	id-1323_AU22-66_AU7-100	valence	-0.05434893808568974		0.968887042869028
id-1323_AU22-66_AU7-100	1	1	2	6	9	train	id-1323_AU22-66_AU7-100	arousal	0.05978383189425871		0.968887042869028
id-1280_AU11-33_AU16Open-66_AU25-66_AU7-33	1	1	2	6	10	test_extra	id-1280_AU11-33_AU16Open-66_AU25-66_AU7-33	valence	-0.029891915947129363		2.118804394547624
id-1280_AU11-33_AU16Open-66_AU25-66_AU7-33	1	1	2	6	10	test_extra	id-1280_AU11-33_AU16Open-66_AU25-66_AU7-33	arousal	0.26359234971559525		2.118804394547624
id-1335_AU11-66_AU17-66_AU25-66_AU6-33	1	1	2	6	11	test_extra	id-1335_AU11-66_AU17-66_AU25-66_AU6-33	valence	-0.1440246859270778		1.6772269164284808
id-1335_AU11-66_AU17-66_AU25-66_AU6-33	1	1	2	6	11	test_extra	id-1335_AU11-66_AU17-66_AU25-66_AU6-33	arousal	0.02173957523427589		1.6772269164284808
id-1309_AU11-66_AU24-66	1	1	2	6	12	test	id-1309_AU11-66_AU24-66	valence	-0.1875038363956296		2.5775227962076315
id-1309_AU11-66_AU24-66	1	1	2	6	12	test	id-1309_AU11-66_AU24-66	arousal	0.03260936285141384		2.5775227962076315
id-1344_AU10Open-66	1	1	2	6	13	train	id-1344_AU10Open-66	valence	-0.02717446904284487		1.8771597835329883
id-1344_AU10Open-66	1	1	2	6	13	train	id-1344_AU10Open-66	arousal	0.07337106641568114		1.8771597835329883
id-1380_AU11-66_AU13-33	1	1	2	6	14	test_extra	id-1380_AU11-66_AU13-33	valence	-0.06521872570282768		1.3270992914804085
id-1380_AU11-66_AU13-33	1	1	2	6	14	test_extra	id-1380_AU11-66_AU13-33	arousal	0.06793617260711217		1.3270992914804085
id-1335_AU43-66_AU5-66	1	1	2	6	15	test	id-1335_AU43-66_AU5-66	valence	0.01902212832999141		1.9104080738179616
id-1335_AU43-66_AU5-66	1	1	2	6	15	test	id-1335_AU43-66_AU5-66	arousal	0.029891915947129363		1.9104080738179616
id-1279_AU17-66_AU20-33_AU24-100_AU27i-66	1	1	2	6	16	test_extra	id-1279_AU17-66_AU20-33_AU24-100_AU27i-66	valence	-0.0027174469042844872		3.2940209464286454
id-1279_AU17-66_AU20-33_AU24-100_AU27i-66	1	1	2	6	16	test_extra	id-1279_AU17-66_AU20-33_AU24-100_AU27i-66	arousal	0.4483787392069404		3.2940209464286454
id-1347_AU11-33_AU4-100	1	1	2	6	17	test_extra	id-1347_AU11-33_AU4-100	valence	-0.04619659737283628		2.6606725001438463
id-1347_AU11-33_AU4-100	1	1	2	6	17	test_extra	id-1347_AU11-33_AU4-100	arousal	0.05978383189425871		2.6606725001438463
id-1289_AU10Open-33_AU2-66_AU24-66	1	1	2	6	18	train	id-1289_AU10Open-33_AU2-66_AU24-66	valence	-0.1630468142570692		3.727406943668029
id-1289_AU10Open-33_AU2-66_AU24-66	1	1	2	6	18	train	id-1289_AU10Open-33_AU2-66_AU24-66	arousal	0.0625012787985432		3.727406943668029
id-1307_AU10Open-66_AU17-33_AU22-33_AU9-100	1	1	2	6	19	test	id-1307_AU10Open-66_AU17-33_AU22-33_AU9-100	valence	-0.04891404427712077		2.7939300876096245
id-1307_AU10Open-66_AU17-33_AU22-33_AU9-100	1	1	2	6	19	test	id-1307_AU10Open-66_AU17-33_AU22-33_AU9-100	arousal	0.08967574784138807		2.7939300876096245
id-1344_AU20-100_AU22-66_AU7-66	1	1	2	6	20	test_extra	id-1344_AU20-100_AU22-66_AU7-66	valence	-0.010869787617137949		2.6856399600110312
id-1344_AU20-100_AU22-66_AU7-66	1	1	2	6	20	test_extra	id-1344_AU20-100_AU22-66_AU7-66	arousal	0.1875038363956296		2.6856399600110312
id-1345_AU1-100_AU20-33_AU4-33_AU7-33_AU9-33	1	1	2	6	21	test_extra	id-1345_AU1-100_AU20-33_AU4-33_AU7-33_AU9-33	valence	-0.11956766378851742		5.202527022200228
id-1345_AU1-100_AU20-33_AU4-33_AU7-33_AU9-33	1	1	2	6	21	test_extra	id-1345_AU1-100_AU20-33_AU4-33_AU7-33_AU9-33	arousal	0.11413276997994845		5.202527022200228
id-1363_AU1-100_AU25-66_AU5-66	1	1	2	6	22	test_extra	id-1363_AU1-100_AU25-66_AU5-66	valence	-0.013587234521422437		1.760398957747384
id-1363_AU1-100_AU25-66_AU5-66	1	1	2	6	22	test_extra	id-1363_AU1-100_AU25-66_AU5-66	arousal	0.024457022138560384		1.760398957747384
id-1260_AU12-66_AU20-100_AU22-66_AU43-66	1	1	2	6	23	train	id-1260_AU12-66_AU20-100_AU22-66_AU43-66	valence	-0.0027174469042844872		3.9024417779110085
id-1260_AU12-66_AU20-100_AU22-66_AU43-66	1	1	2	6	23	train	id-1260_AU12-66_AU20-100_AU22-66_AU43-66	arousal	0.21739575234275896		3.9024417779110085
id-1339_AU14-100_AU15-66_AU26-33	1	1	2	6	24	test_extra	id-1339_AU14-100_AU15-66_AU26-33	valence	0.024457022138560384		1.477025397001853
id-1339_AU14-100_AU15-66_AU26-33	1	1	2	6	24	test_extra	id-1339_AU14-100_AU15-66_AU26-33	arousal	0.2771795842370177		1.477025397001853
id-1291_AU10Open-66_AU13-33_AU4-33_AU6-100	1	1	2	6	25	test_extra	id-1291_AU10Open-66_AU13-33_AU4-33_AU6-100	valence	-0.029891915947129363		2.3022106161733973
id-1291_AU10Open-66_AU13-33_AU4-33_AU6-100	1	1	2	6	25	test_extra	id-1291_AU10Open-66_AU13-33_AU4-33_AU6-100	arousal	0.29348426566272456		2.3022106161733973
id-1279_AU12-100	1	1	2	6	26	train	id-1279_AU12-100	valence	0.07065361951139666		1.6105957078434583
id-1279_AU12-100	1	1	2	6	26	train	id-1279_AU12-100	arousal	0.36685533207840576		1.6105957078434583
id-1356_AU15-100	1	1	2	6	27	test_extra	id-1356_AU15-100	valence	0.0		1.6188219022260455
id-1356_AU15-100	1	1	2	6	27	test_extra	id-1356_AU15-100	arousal	0.30163660637557804		1.6188219022260455
id-1354_AU20-100_AU43-66_AU9-33	1	1	2	6	28	train	id-1354_AU20-100_AU43-66_AU9-33	valence	-0.2282655399598969		2.29380934499568
id-1354_AU20-100_AU43-66_AU9-33	1	1	2	6	28	train	id-1354_AU20-100_AU43-66_AU9-33	arousal	0.05434893808568974		2.29380934499568
id-1377_AU14-33_AU5-100_AU6-66	1	1	2	6	29	test_extra	id-1377_AU14-33_AU5-100_AU6-66	valence	0.00815234071285346		2.16888631841357
id-1377_AU14-33_AU5-100_AU6-66	1	1	2	6	29	test_extra	id-1377_AU14-33_AU5-100_AU6-66	arousal	0.2608749028113107		2.16888631841357
id-1279_AU22-33_AU26-33_AU4-33	1	1	2	6	30	test	id-1279_AU22-33_AU26-33_AU4-33	valence	0.2092434116299055		1.3687032726084
id-1279_AU22-33_AU26-33_AU4-33	1	1	2	6	30	test	id-1279_AU22-33_AU26-33_AU4-33	arousal	0.06793617260711217		1.3687032726084
id-1360_AU14-33_AU5-66	1	1	2	6	31	train	id-1360_AU14-33_AU5-66	valence	-0.029891915947129363		4.852561192357825
id-1360_AU14-33_AU5-66	1	1	2	6	31	train	id-1360_AU14-33_AU5-66	arousal	0.11956766378851742		4.852561192357825
id-1376_AU13-66_AU22-100_AU27i-33_AU6-33	1	1	2	6	32	test_extra	id-1376_AU13-66_AU22-100_AU27i-33_AU6-33	valence	0.01630468142570692		2.3104491866797616
id-1376_AU13-66_AU22-100_AU27i-33_AU6-33	1	1	2	6	32	test_extra	id-1376_AU13-66_AU22-100_AU27i-33_AU6-33	arousal	0.3369634161312764		2.3104491866797616
id-1373_AU1-33_AU15-100_AU4-66_AU7-66_AU9-66	1	1	2	6	33	test_extra	id-1373_AU1-33_AU15-100_AU4-66_AU7-66_AU9-66	valence	-0.11413276997994845		3.994110175222886
id-1373_AU1-33_AU15-100_AU4-66_AU7-66_AU9-66	1	1	2	6	33	test_extra	id-1373_AU1-33_AU15-100_AU4-66_AU7-66_AU9-66	arousal	0.17391660187420716		3.994110175222886
id-1378_AU25-33_AU4-66_AU43-33_AU7-33	1	1	2	6	34	test_extra	id-1378_AU25-33_AU4-66_AU43-33_AU7-33	valence	0.2527225620984573		5.4942746870365236
id-1378_AU25-33_AU4-66_AU43-33_AU7-33	1	1	2	6	34	test_extra	id-1378_AU25-33_AU4-66_AU43-33_AU7-33	arousal	0.0815234071285346		5.4942746870365236
id-1323_AU10Open-100_AU2-33_AU20-66_AU4-66	1	1	2	6	35	train	id-1323_AU10Open-100_AU2-33_AU20-66_AU4-66	valence	-0.05978383189425871		1.6938054812308112
id-1323_AU10Open-100_AU2-33_AU20-66_AU4-66	1	1	2	6	35	train	id-1323_AU10Open-100_AU2-33_AU20-66_AU4-66	arousal	0.2418527744813193		1.6938054812308112
id-1306_AU24-66_AU43-100_AU7-100	1	1	2	6	36	test	id-1306_AU24-66_AU43-100_AU7-100	valence	0.0		1.8039124833376263
id-1306_AU24-66_AU43-100_AU7-100	1	1	2	6	36	test	id-1306_AU24-66_AU43-100_AU7-100	arousal	0.2907668187584401		1.8039124833376263
id-1360_AU1-100_AU11-66	1	1	2	7	1	test	id-1360_AU1-100_AU11-66	valence	-0.00815234071285346		1.0103156453478732
id-1360_AU1-100_AU11-66	1	1	2	7	1	test	id-1360_AU1-100_AU11-66	arousal	0.1847863894913451		1.0103156453478732
id-1293_AU24-33_AU27i-33_AU4-33	1	1	2	7	2	test_extra	id-1293_AU24-33_AU27i-33_AU4-33	valence	-0.010869787617137949		3.4523534546860897
id-1293_AU24-33_AU27i-33_AU4-33	1	1	2	7	2	test_extra	id-1293_AU24-33_AU27i-33_AU4-33	arousal	0.2798970311413021		3.4523534546860897
id-1342_AU1-100_AU14-100_AU15-66_AU5-100_AU7-100	1	1	2	7	3	test	id-1342_AU1-100_AU14-100_AU15-66_AU5-100_AU7-100	valence	-0.00815234071285346		1.7771722200232034
id-1342_AU1-100_AU14-100_AU15-66_AU5-100_AU7-100	1	1	2	7	3	test	id-1342_AU1-100_AU14-100_AU15-66_AU5-100_AU7-100	arousal	0.3913123542169661		1.7771722200232034
id-1380_AU1-66_AU14-100_AU17-66_AU9-33	1	1	2	7	4	test_extra	id-1380_AU1-66_AU14-100_AU17-66_AU9-33	valence	-0.0054348938085689745		1.9354799760476449
id-1380_AU1-66_AU14-100_AU17-66_AU9-33	1	1	2	7	4	test_extra	id-1380_AU1-66_AU14-100_AU17-66_AU9-33	arousal	0.33424596922699185		1.9354799760476449
id-1307_AU1-33_AU10Open-100_AU4-66_AU9-33	1	1	2	7	5	train	id-1307_AU1-33_AU10Open-100_AU4-66_AU9-33	valence	0.0		1.1853341793357686
id-1307_AU1-33_AU10Open-100_AU4-66_AU9-33	1	1	2	7	5	train	id-1307_AU1-33_AU10Open-100_AU4-66_AU9-33	arousal	0.41305192945124203		1.1853341793357686
id-1358_AU14-100	1	1	2	7	6	test_extra	id-1358_AU14-100	valence	-0.010869787617137949		6.394468841157504
id-1358_AU14-100	1	1	2	7	6	test_extra	id-1358_AU14-100	arousal	0.21467830543847446		6.394468841157504
id-1296_AU16Open-100_AU17-100_AU27i-33	1	1	2	7	7	test_extra	id-1296_AU16Open-100_AU17-100_AU27i-33	valence	-0.0054348938085689745		1.5700868622407145
id-1296_AU16Open-100_AU17-100_AU27i-33	1	1	2	7	7	test_extra	id-1296_AU16Open-100_AU17-100_AU27i-33	arousal	0.2798970311413021		1.5700868622407145
id-1294_AU13-66_AU15-33_AU24-100_AU4-66	1	1	2	7	8	train	id-1294_AU13-66_AU15-33_AU24-100_AU4-66	valence	0.04891404427712077		3.169263337229495
id-1294_AU13-66_AU15-33_AU24-100_AU4-66	1	1	2	7	8	train	id-1294_AU13-66_AU15-33_AU24-100_AU4-66	arousal	0.2581574559070263		3.169263337229495
id-1294_AU12-100_AU24-66_AU27i-33	1	1	2	7	9	test_extra	id-1294_AU12-100_AU24-66_AU27i-33	valence	0.13587234521422434		2.160373964030441
id-1294_AU12-100_AU24-66_AU27i-33	1	1	2	7	9	test_extra	id-1294_AU12-100_AU24-66_AU27i-33	arousal	0.3043540532798626		2.160373964030441
id-1269_AU15-66_AU16Open-66_AU26-33_AU27i-100	1	1	2	7	10	test	id-1269_AU15-66_AU16Open-66_AU26-33_AU27i-100	valence	0.0842408540328191		1.7272828806271718
id-1269_AU15-66_AU16Open-66_AU26-33_AU27i-100	1	1	2	7	10	test	id-1269_AU15-66_AU16Open-66_AU26-33_AU27i-100	arousal	0.24457022138560386		1.7272828806271718
id-1289_AU10Open-66_AU15-66_AU43-100_AU7-100	1	1	2	7	11	test_extra	id-1289_AU10Open-66_AU15-66_AU43-100_AU7-100	valence	-0.057066384989974225		1.4937742088950472
id-1289_AU10Open-66_AU15-66_AU43-100_AU7-100	1	1	2	7	11	test_extra	id-1289_AU10Open-66_AU15-66_AU43-100_AU7-100	arousal	0.2500051151941728		1.4937742088950472
id-1341_AU14-33_AU4-100_AU7-66	1	1	2	7	12	test_extra	id-1341_AU14-33_AU4-100_AU7-66	valence	-0.00815234071285346		2.3522997845939244
id-1341_AU14-33_AU4-100_AU7-66	1	1	2	7	12	test_extra	id-1341_AU14-33_AU4-100_AU7-66	arousal	0.28261447804558665		2.3522997845939244
id-1347_AU13-100_AU14-66_AU17-100_AU27i-66_AU7-100	1	1	2	7	13	test	id-1347_AU13-100_AU14-66_AU17-100_AU27i-66_AU7-100	valence	-0.4483787392069404		1.3270105456576855
id-1347_AU13-100_AU14-66_AU17-100_AU27i-66_AU7-100	1	1	2	7	13	test	id-1347_AU13-100_AU14-66_AU17-100_AU27i-66_AU7-100	arousal	0.05978383189425871		1.3270105456576855
id-1290_AU2-100_AU9-66	1	1	2	7	14	test_extra	id-1290_AU2-100_AU9-66	valence	-0.1875038363956296		4.185763419336581
id-1290_AU2-100_AU9-66	1	1	2	7	14	test_extra	id-1290_AU2-100_AU9-66	arousal	0.06793617260711217		4.185763419336581
id-1378_AU10Open-100_AU24-66_AU43-100	1	1	2	7	15	train	id-1378_AU10Open-100_AU24-66_AU43-100	valence	-0.20652596472562101		3.327214600682056
id-1378_AU10Open-100_AU24-66_AU43-100	1	1	2	7	15	train	id-1378_AU10Open-100_AU24-66_AU43-100	arousal	0.04891404427712077		3.327214600682056
id-1361_AU12-33_AU13-100_AU4-100	1	1	2	7	16	train	id-1361_AU12-33_AU13-100_AU4-100	valence	-0.14130723902279332		2.985700452059973
id-1361_AU12-33_AU13-100_AU4-100	1	1	2	7	16	train	id-1361_AU12-33_AU13-100_AU4-100	arousal	0.11685021688423293		2.985700452059973
id-1270_AU11-33_AU17-66	1	1	2	7	17	test_extra	id-1270_AU11-33_AU17-66	valence	0.0027174469042844872		1.318824800047878
id-1270_AU11-33_AU17-66	1	1	2	7	17	test_extra	id-1270_AU11-33_AU17-66	arousal	0.1875038363956296		1.318824800047878
id-1341_AU12-66_AU20-66	1	1	2	7	18	train	id-1341_AU12-66_AU20-66	valence	-0.0054348938085689745		1.5771931688686889
id-1341_AU12-66_AU20-66	1	1	2	7	18	train	id-1341_AU12-66_AU20-66	arousal	0.2092434116299055		1.5771931688686889
id-1354_AU14-100_AU2-100_AU20-100_AU4-66	1	1	2	7	19	train	id-1354_AU14-100_AU2-100_AU20-100_AU4-66	valence	-0.19837362401276756		6.7277552861123695
id-1354_AU14-100_AU2-100_AU20-100_AU4-66	1	1	2	7	19	train	id-1354_AU14-100_AU2-100_AU20-100_AU4-66	arousal	0.11141532307566396		6.7277552861123695
id-1366_AU5-100	1	1	2	7	20	test_extra	id-1366_AU5-100	valence	-0.010869787617137949		3.4189125799312023
id-1366_AU5-100	1	1	2	7	20	test_extra	id-1366_AU5-100	arousal	0.105980429267095		3.4189125799312023
id-1323_AU12-66_AU16Open-33_AU7-66_AU9-100	1	1	2	7	21	test	id-1323_AU12-66_AU16Open-33_AU7-66_AU9-100	valence	-0.2717446904284487		2.560578683132917
id-1323_AU12-66_AU16Open-33_AU7-66_AU9-100	1	1	2	7	21	test	id-1323_AU12-66_AU16Open-33_AU7-66_AU9-100	arousal	0.22283064615132792		2.560578683132917
id-1354_AU12-66_AU15-66_AU2-66_AU5-66_AU9-66	1	1	2	7	22	test_extra	id-1354_AU12-66_AU15-66_AU2-66_AU5-66_AU9-66	valence	0.010869787617137949		1.2520040255585627
id-1354_AU12-66_AU15-66_AU2-66_AU5-66_AU9-66	1	1	2	7	22	test_extra	id-1354_AU12-66_AU15-66_AU2-66_AU5-66_AU9-66	arousal	0.3206587347055695		1.2520040255585627
id-1323_AU11-33_AU16Open-33_AU2-33_AU27i-100	1	1	2	7	23	test_extra	id-1323_AU11-33_AU16Open-33_AU2-33_AU27i-100	valence	0.04347915046855179		0.9353076159604824
id-1323_AU11-33_AU16Open-33_AU2-33_AU27i-100	1	1	2	7	23	test_extra	id-1323_AU11-33_AU16Open-33_AU2-33_AU27i-100	arousal	0.28261447804558665		0.9353076159604824
id-1342_AU1-100_AU11-33_AU43-33	1	1	2	7	24	train	id-1342_AU1-100_AU11-33_AU43-33	valence	-0.6087081065597252		1.352117161390197
id-1342_AU1-100_AU11-33_AU43-33	1	1	2	7	24	train	id-1342_AU1-100_AU11-33_AU43-33	arousal	0.07337106641568114		1.352117161390197
id-1370_AU2-33_AU25-66_AU4-100	1	1	2	7	25	test_extra	id-1370_AU2-33_AU25-66_AU4-100	valence	-0.01630468142570692		2.5103654516715324
id-1370_AU2-33_AU25-66_AU4-100	1	1	2	7	25	test_extra	id-1370_AU2-33_AU25-66_AU4-100	arousal	0.23098298686418134		2.5103654516715324
id-1273_AU16Open-33_AU22-100_AU24-100_AU9-100	1	1	2	7	26	train	id-1273_AU16Open-33_AU22-100_AU24-100_AU9-100	valence	-0.013587234521422437		2.5355967341565697
id-1273_AU16Open-33_AU22-100_AU24-100_AU9-100	1	1	2	7	26	train	id-1273_AU16Open-33_AU22-100_AU24-100_AU9-100	arousal	0.13043745140565535		2.5355967341565697
id-1270_AU10Open-66_AU12-33_AU14-33	1	1	2	7	27	test_extra	id-1270_AU10Open-66_AU12-33_AU14-33	valence	-0.2527225620984573		2.0520965144023653
id-1270_AU10Open-66_AU12-33_AU14-33	1	1	2	7	27	test_extra	id-1270_AU10Open-66_AU12-33_AU14-33	arousal	0.07337106641568114		2.0520965144023653
id-1269_AU10Open-33	1	1	2	7	28	train	id-1269_AU10Open-33	valence	-0.7337106641568115		4.244100515810715
id-1269_AU10Open-33	1	1	2	7	28	train	id-1269_AU10Open-33	arousal	0.50272767729263		4.244100515810715
id-1345_AU14-100_AU16Open-100	1	1	2	7	29	train	id-1345_AU14-100_AU16Open-100	valence	-0.5054451241969146		2.9438356668870256
id-1345_AU14-100_AU16Open-100	1	1	2	7	29	train	id-1345_AU14-100_AU16Open-100	arousal	0.0842408540328191		2.9438356668870256
id-1360_AU12-100_AU43-66_AU7-33	1	1	2	7	30	test_extra	id-1360_AU12-100_AU43-66_AU7-33	valence	-0.0815234071285346		1.427111003515165
id-1360_AU12-100_AU43-66_AU7-33	1	1	2	7	30	test_extra	id-1360_AU12-100_AU43-66_AU7-33	arousal	0.19022128329991408		1.427111003515165
id-1354_AU1-66_AU10Open-100	1	1	2	7	31	test	id-1354_AU1-66_AU10Open-100	valence	-0.4646834206326473		0.9351147296329144
id-1354_AU1-66_AU10Open-100	1	1	2	7	31	test	id-1354_AU1-66_AU10Open-100	arousal	0.11685021688423293		0.9351147296329144
id-1315_AU1-66_AU20-66	1	1	2	7	32	train	id-1315_AU1-66_AU20-66	valence	-0.08695830093710358		1.1438382628512045
id-1315_AU1-66_AU20-66	1	1	2	7	32	train	id-1315_AU1-66_AU20-66	arousal	0.1032629823628105		1.1438382628512045
id-1367_AU17-66	1	1	2	7	33	train	id-1367_AU17-66	valence	0.1032629823628105		2.3441798437124817
id-1367_AU17-66	1	1	2	7	33	train	id-1367_AU17-66	arousal	0.12228511069280193		2.3441798437124817
id-1289_AU2-100	1	1	2	7	34	test_extra	id-1289_AU2-100	valence	0.4674008675369317		2.160589791452366
id-1289_AU2-100	1	1	2	7	34	test_extra	id-1289_AU2-100	arousal	0.1032629823628105		2.160589791452366
id-1285_AU16Open-33_AU5-33	1	1	2	7	35	test	id-1285_AU16Open-33_AU5-33	valence	-0.13587234521422434		1.2605501878751966
id-1285_AU16Open-33_AU5-33	1	1	2	7	35	test	id-1285_AU16Open-33_AU5-33	arousal	0.105980429267095		1.2605501878751966
id-1345_AU12-33_AU27i-66_AU7-100_AU9-66	1	1	2	7	36	train	id-1345_AU12-33_AU27i-66_AU7-100_AU9-66	valence	-0.02717446904284487		2.520017616345285
id-1345_AU12-33_AU27i-66_AU7-100_AU9-66	1	1	2	7	36	train	id-1345_AU12-33_AU27i-66_AU7-100_AU9-66	arousal	0.1250025575970864		2.520017616345285
id-1318_AU22-33_AU25-33_AU26-66	1	1	2	8	1	test_extra	id-1318_AU22-33_AU25-33_AU26-66	emotion	Verrassing	0.05719719647133211	2.136534843903064
id-1274_AU14-100_AU26-33	1	1	2	8	2	train	id-1274_AU14-100_AU26-33	emotion	Verrassing	0.19271789816080034	3.1452056729722244
id-1290_AU24-100_AU9-33	1	1	2	8	3	test_extra	id-1290_AU24-100_AU9-33	emotion	Walging	0.06552800072299714	0.9446376997075276
id-1302_AU15-100_AU4-100_AU5-66_AU9-100	1	1	2	8	4	test_extra	id-1302_AU15-100_AU4-100_AU5-66_AU9-100	emotion	Walging	0.08785181144315084	1.1448340875722351
id-1367_AU10Open-33_AU14-33_AU17-66_AU43-66	1	1	2	8	5	test_extra	id-1367_AU10Open-33_AU14-33_AU17-66_AU43-66	emotion	Geen van allen	0.0	1.7449547698161039
id-1366_AU14-33_AU2-100_AU26-100_AU27i-100	1	1	2	8	6	test	id-1366_AU14-33_AU2-100_AU26-100_AU27i-100	emotion	Verrassing	0.6733337590738513	0.9114549122932658
id-1345_AU25-100_AU43-66	1	1	2	8	7	test_extra	id-1345_AU25-100_AU43-66	emotion	Geen van allen	0.0	1.828121679576725
id-1367_AU14-66_AU2-100_AU20-66_AU9-33	1	1	2	8	8	test_extra	id-1367_AU14-66_AU2-100_AU20-66_AU9-33	emotion	Walging	0.1126126141881722	1.4221593488582585
id-1370_AU26-100_AU4-33_AU6-33	1	1	2	8	9	test_extra	id-1370_AU26-100_AU4-33_AU6-33	emotion	Verrassing	0.29936469377390124	0.7281078545493074
id-1361_AU12-33_AU15-33_AU16Open-100_AU6-66	1	1	2	8	10	test	id-1361_AU12-33_AU15-33_AU16Open-100_AU6-66	emotion	Geen van allen	0.0	1.078045913585811
id-1373_AU11-33_AU13-100_AU16Open-66_AU43-33	1	1	2	8	11	test	id-1373_AU11-33_AU13-100_AU16Open-66_AU43-33	emotion	Verrassing	0.0402824723740877	0.969635948942596
id-1295_AU1-33_AU14-33_AU6-66	1	1	2	8	12	test_extra	id-1295_AU1-33_AU14-33_AU6-66	emotion	Geen van allen	0.0	1.1279506476639654
id-1370_AU10Open-100_AU2-33_AU27i-66_AU5-66	1	1	2	8	13	test	id-1370_AU10Open-100_AU2-33_AU27i-66_AU5-66	emotion	Verrassing	0.1554638393517395	1.1863985254894942
id-1345_AU26-66_AU27i-100_AU9-100	1	1	2	8	14	test_extra	id-1345_AU26-66_AU27i-100_AU9-100	emotion	Verrassing	0.8560024945303882	1.5198377098495257
id-1273_AU12-100_AU16Open-33_AU20-100_AU22-66_AU5-66	1	1	2	8	15	test	id-1273_AU12-100_AU16Open-33_AU20-100_AU22-66_AU5-66	emotion	Geen van allen	0.0	2.361583080579294
id-1310_AU27i-100_AU5-33_AU7-100	1	1	2	8	16	test_extra	id-1310_AU27i-100_AU5-33_AU7-100	emotion	Verrassing	0.7245245005453521	0.978066198345914
id-1306_AU17-100_AU5-66	1	1	2	8	17	test_extra	id-1306_AU17-100_AU5-66	emotion	Verrassing	0.08353036839382415	3.1616656081569086
id-1296_AU11-66_AU26-66_AU4-66_AU6-100	1	1	2	8	18	test_extra	id-1296_AU11-66_AU26-66_AU4-66_AU6-100	emotion	Verrassing	0.5707390318535652	0.8280779103806708
id-1376_AU1-33_AU5-100_AU7-66	1	1	2	8	19	train	id-1376_AU1-33_AU5-100_AU7-66	emotion	Geen van allen	0.0	5.670342776211327
id-1290_AU14-66_AU16Open-100_AU27i-33	1	1	2	8	20	train	id-1290_AU14-66_AU16Open-100_AU27i-33	emotion	Verrassing	0.7876575007072802	1.0279316910709897
id-1307_AU10Open-33_AU12-100_AU17-33	1	1	2	8	21	test_extra	id-1307_AU10Open-33_AU12-100_AU17-33	emotion	Geen van allen	0.0	2.069787722408364
id-1380_AU22-66_AU7-33	1	1	2	8	22	train	id-1380_AU22-66_AU7-33	emotion	Geen van allen	0.0	1.8363110474638238
id-1358_AU11-33_AU2-100	1	1	2	8	23	test_extra	id-1358_AU11-33_AU2-100	emotion	Verrassing	0.02796832713353988	0.8530734429041331
id-1274_AU17-33_AU20-100_AU24-100_AU9-100	1	1	2	8	24	test_extra	id-1274_AU17-33_AU20-100_AU24-100_AU9-100	emotion	Walging	0.1405307267719275	1.1863888660845987
id-1362_AU17-33_AU5-33	1	1	2	8	25	test_extra	id-1362_AU17-33_AU5-33	emotion	Verrassing	0.019414521301871674	7.195543873036512
id-1361_AU10Open-33_AU11-100_AU13-66_AU17-100_AU7-66	1	1	2	8	26	train	id-1361_AU10Open-33_AU11-100_AU13-66_AU17-100_AU7-66	emotion	Geen van allen	0.0	0.7715226730470022
id-1310_AU10Open-33_AU16Open-33_AU20-66_AU26-100	1	1	2	8	27	test_extra	id-1310_AU10Open-33_AU16Open-33_AU20-66_AU26-100	emotion	Verrassing	0.2188411672598077	3.8700896996888328
id-1273_AU1-100_AU14-66_AU25-33_AU5-100	1	1	2	8	28	test_extra	id-1273_AU1-100_AU14-66_AU25-33_AU5-100	emotion	Blij	0.02355461663324739	1.4127839866305294
id-1367_AU25-66_AU4-66_AU6-33	1	1	2	8	29	test	id-1367_AU25-66_AU4-66_AU6-33	emotion	Geen van allen	0.0	1.4864532822648469
id-1297_AU10Open-100_AU13-100_AU16Open-100_AU22-66_AU25-100	1	1	2	8	30	train	id-1297_AU10Open-100_AU13-100_AU16Open-100_AU22-66_AU25-100	emotion	Boos	0.05247801206029253	1.9782276915939287
id-1306_AU1-66_AU27i-33	1	1	2	8	31	test_extra	id-1306_AU1-66_AU27i-33	emotion	Verrassing	0.25364154869366673	1.0865854350595328
id-1335_AU11-66_AU14-100	1	1	2	8	32	train	id-1335_AU11-66_AU14-100	emotion	Blij	0.10294399708847912	1.2198638506270072
id-1377_AU13-66_AU14-100_AU9-66	1	1	2	8	33	test_extra	id-1377_AU13-66_AU14-100_AU9-66	emotion	Geen van allen	0.0	4.2535431920477995
id-1290_AU10Open-33_AU14-66_AU24-66	1	1	2	8	34	test	id-1290_AU10Open-33_AU14-66_AU24-66	emotion	Geen van allen	0.0	2.2781097864317417
id-1370_AU2-33_AU27i-66	1	1	2	8	35	test_extra	id-1370_AU2-33_AU27i-66	emotion	Verrassing	0.1801214509456285	1.4864191724773264
id-1315_AU12-66_AU25-66_AU6-33_AU7-100	1	1	2	8	36	test_extra	id-1315_AU12-66_AU25-66_AU6-33_AU7-100	emotion	Geen van allen	0.0	1.0447918880272482
id-1342_AU17-100_AU2-100_AU20-33_AU26-33	1	1	3	9	1	test_extra	id-1342_AU17-100_AU2-100_AU20-33_AU26-33	emotion	Verrassing	0.3899902064672899	4.370176936230564
id-1309_AU27i-33_AU4-100_AU43-66	1	1	3	9	2	train	id-1309_AU27i-33_AU4-100_AU43-66	emotion	Verrassing	0.3447145964569567	1.2281099675456062
id-1297_AU13-66_AU7-33_AU9-33	1	1	3	9	3	test_extra	id-1297_AU13-66_AU7-33_AU9-33	emotion	Walging	0.03940639024157359	7.237308743697213
id-1279_AU13-66_AU20-33	1	1	3	9	4	train	id-1279_AU13-66_AU20-33	emotion	Geen van allen	0.0	3.7952093556195923
id-1291_AU1-100_AU16Open-100_AU6-33	1	1	3	9	5	test_extra	id-1291_AU1-100_AU16Open-100_AU6-33	emotion	Verrassing	0.06596047393696176	1.461414282402984
id-1347_AU4-33_AU43-66_AU9-66	1	1	3	9	6	train	id-1347_AU4-33_AU43-66_AU9-66	emotion	Verdrietig	0.02233540677024474	2.678326579796704
id-1376_AU14-33_AU17-33_AU2-100_AU27i-33_AU43-66	1	1	3	9	7	test_extra	id-1376_AU14-33_AU17-33_AU2-100_AU27i-33_AU43-66	emotion	Verrassing	0.014071360457819204	3.203380672490312
id-1366_AU15-66_AU24-33_AU4-100_AU9-100	1	1	3	9	8	train	id-1366_AU15-66_AU24-33_AU4-100_AU9-100	emotion	Walging	0.1739805348650374	1.4198287145263748
id-1355_AU13-66_AU14-100_AU15-100_AU7-33	1	1	3	9	9	test	id-1355_AU13-66_AU14-100_AU15-100_AU7-33	emotion	Walging	0.04896407222981358	0.8065911582598346
id-1380_AU13-66_AU20-66_AU22-100_AU5-100	1	1	3	9	10	test_extra	id-1380_AU13-66_AU20-66_AU22-100_AU5-100	emotion	Walging	0.09341838323389066	0.6613845797182876
id-1260_AU12-100_AU4-66_AU43-66	1	1	3	9	11	train	id-1260_AU12-100_AU4-66_AU43-66	emotion	Geen van allen	0.0	1.5196122230154288
id-1296_AU15-66_AU24-66	1	1	3	9	12	test_extra	id-1296_AU15-66_AU24-66	emotion	Verdrietig	0.053096322116690936	6.678854828740442
id-1274_AU10Open-66_AU2-33_AU43-100_AU9-66	1	1	3	9	13	test	id-1274_AU10Open-66_AU2-33_AU43-100_AU9-66	emotion	Boos	0.11634853940640574	3.3282714004199083
id-1311_AU16Open-100_AU43-100_AU6-66_AU9-100	1	1	3	9	14	test	id-1311_AU16Open-100_AU43-100_AU6-66_AU9-100	emotion	Boos	0.2456379344134361	0.8363074251901708
id-1296_AU1-66_AU17-100_AU27i-33_AU4-66_AU5-100	1	1	3	9	15	test	id-1296_AU1-66_AU17-100_AU27i-33_AU4-66_AU5-100	emotion	Bang	0.1726945950339851	3.9366967597525218
id-1345_AU11-100_AU20-66	1	1	3	9	16	train	id-1345_AU11-100_AU20-66	emotion	Walging	0.10951836230002683	1.3447895939170849
id-1335_AU12-100_AU20-100_AU5-33	1	1	3	9	17	test_extra	id-1335_AU12-100_AU20-100_AU5-33	emotion	Verrassing	0.09509406978954528	1.1281332708676928
id-1354_AU16Open-33_AU20-33_AU25-100_AU7-66	1	1	3	9	18	train	id-1354_AU16Open-33_AU20-33_AU25-100_AU7-66	emotion	Bang	0.1047645817526824	3.1618201587043586
id-1356_AU6-33	1	1	3	9	19	test	id-1356_AU6-33	emotion	Geen van allen	0.0	1.9198727855800823
id-1266_AU25-100_AU4-100	1	1	3	9	20	test_extra	id-1266_AU25-100_AU4-100	emotion	Bang	0.10437548593731764	2.5449663611070714
id-1302_AU1-33_AU14-100_AU27i-100_AU9-100	1	1	3	9	21	train	id-1302_AU1-33_AU14-100_AU27i-100_AU9-100	emotion	Verrassing	0.5077326920360411	1.4948391587640801
id-1373_AU15-33_AU16Open-33_AU2-33_AU4-100	1	1	3	9	22	train	id-1373_AU15-33_AU16Open-33_AU2-33_AU4-100	emotion	Verdrietig	0.023343142100609025	1.50310187778814
id-1311_AU24-66	1	1	3	9	23	train	id-1311_AU24-66	emotion	Verdrietig	0.02487104260575157	2.0783522979727422
id-1315_AU12-66_AU17-33_AU2-100_AU4-100	1	1	3	9	24	test	id-1315_AU12-66_AU17-33_AU2-100_AU4-100	emotion	Geen van allen	0.0	6.595486580663419
id-1296_AU11-33_AU22-66_AU25-33	1	1	3	9	25	train	id-1296_AU11-33_AU22-66_AU25-33	emotion	Verrassing	0.010021954879942138	1.5447007273505733
id-1347_AU10Open-33	1	1	3	9	26	train	id-1347_AU10Open-33	emotion	Boos	0.02930639414218043	1.0364126523782031
id-1269_AU13-33_AU15-100	1	1	3	9	27	test_extra	id-1269_AU13-33_AU15-100	emotion	Verdrietig	0.023660265785130363	1.5614051663324062
id-1279_AU10Open-100_AU24-33	1	1	3	9	28	test_extra	id-1279_AU10Open-100_AU24-33	emotion	Verdrietig	0.02408227723995075	2.5032718230213504
id-1306_AU12-100_AU14-33_AU17-33_AU27i-33	1	1	3	9	29	train	id-1306_AU12-100_AU14-33_AU17-33_AU27i-33	emotion	Verrassing	0.3769544189223332	1.4364836490349262
id-1356_AU12-33_AU15-66_AU16Open-66_AU6-33_AU9-100	1	1	3	9	30	test_extra	id-1356_AU12-33_AU15-66_AU16Open-66_AU6-33_AU9-100	emotion	Geen van allen	0.0	2.1033279079674685
id-1289_AU4-66_AU43-66_AU6-33	1	1	3	9	31	train	id-1289_AU4-66_AU43-66_AU6-33	emotion	Geen van allen	0.0	1.0031525896883975
id-1361_AU7-66	1	1	3	9	32	test_extra	id-1361_AU7-66	emotion	Boos	0.011014675069550079	1.4862833370389126
id-1341_AU14-33_AU2-33	1	1	3	9	33	test_extra	id-1341_AU14-33_AU2-33	emotion	Blij	0.04195134654152029	1.2029731661641565
id-1361_AU15-33_AU16Open-100_AU27i-100_AU6-33	1	1	3	9	34	test_extra	id-1361_AU15-33_AU16Open-100_AU27i-100_AU6-33	emotion	Verrassing	0.41529855460148735	1.136293660529191
id-1380_AU10Open-33_AU13-33_AU16Open-100_AU22-33_AU43-66	1	1	3	9	35	test	id-1380_AU10Open-33_AU13-33_AU16Open-100_AU22-33_AU43-66	emotion	Verrassing	0.18155318094994524	5.562080419411359
id-1339_AU11-100_AU20-100_AU4-33	1	1	3	9	36	test_extra	id-1339_AU11-100_AU20-100_AU4-33	emotion	Verdrietig	0.05321063317190256	11.187642476288602
id-1380_AU10Open-33_AU13-33_AU16Open-100_AU22-33_AU43-66	1	1	3	10	1	test	id-1380_AU10Open-33_AU13-33_AU16Open-100_AU22-33_AU43-66	valence	-0.14674213283136228		2.7856103176964098
id-1380_AU10Open-33_AU13-33_AU16Open-100_AU22-33_AU43-66	1	1	3	10	1	test	id-1380_AU10Open-33_AU13-33_AU16Open-100_AU22-33_AU43-66	arousal	0.07608851331996565		2.7856103176964098
id-1345_AU11-100_AU20-66	1	1	3	10	2	train	id-1345_AU11-100_AU20-66	valence	-0.01902212832999141		1.5021066567824164
id-1345_AU11-100_AU20-66	1	1	3	10	2	train	id-1345_AU11-100_AU20-66	arousal	0.11956766378851742		1.5021066567824164
id-1291_AU1-100_AU16Open-100_AU6-33	1	1	3	10	3	test_extra	id-1291_AU1-100_AU16Open-100_AU6-33	valence	-0.0054348938085689745		1.0603622519956843
id-1291_AU1-100_AU16Open-100_AU6-33	1	1	3	10	3	test_extra	id-1291_AU1-100_AU16Open-100_AU6-33	arousal	0.3043540532798626		1.0603622519956843
id-1342_AU17-100_AU2-100_AU20-33_AU26-33	1	1	3	10	4	test_extra	id-1342_AU17-100_AU2-100_AU20-33_AU26-33	valence	-0.0027174469042844872		2.1439590054651494
id-1342_AU17-100_AU2-100_AU20-33_AU26-33	1	1	3	10	4	test_extra	id-1342_AU17-100_AU2-100_AU20-33_AU26-33	arousal	0.3097889470884315		2.1439590054651494
id-1296_AU15-66_AU24-66	1	1	3	10	5	test_extra	id-1296_AU15-66_AU24-66	valence	0.0		1.1770934958367434
id-1296_AU15-66_AU24-66	1	1	3	10	5	test_extra	id-1296_AU15-66_AU24-66	arousal	0.4701183144412162		1.1770934958367434
id-1361_AU15-33_AU16Open-100_AU27i-100_AU6-33	1	1	3	10	6	test_extra	id-1361_AU15-33_AU16Open-100_AU27i-100_AU6-33	valence	-0.0027174469042844872		3.877427530282148
id-1361_AU15-33_AU16Open-100_AU27i-100_AU6-33	1	1	3	10	6	test_extra	id-1361_AU15-33_AU16Open-100_AU27i-100_AU6-33	arousal	0.6739268322625528		3.877427530282148
id-1289_AU4-66_AU43-66_AU6-33	1	1	3	10	7	train	id-1289_AU4-66_AU43-66_AU6-33	valence	0.33968086303556083		1.6356271612930868
id-1289_AU4-66_AU43-66_AU6-33	1	1	3	10	7	train	id-1289_AU4-66_AU43-66_AU6-33	arousal	0.04619659737283628		1.6356271612930868
id-1311_AU16Open-100_AU43-100_AU6-66_AU9-100	1	1	3	10	8	test	id-1311_AU16Open-100_AU43-100_AU6-66_AU9-100	valence	-0.0842408540328191		0.7604720070339681
id-1311_AU16Open-100_AU43-100_AU6-66_AU9-100	1	1	3	10	8	test	id-1311_AU16Open-100_AU43-100_AU6-66_AU9-100	arousal	0.5135974649097681		0.7604720070339681
id-1380_AU13-66_AU20-66_AU22-100_AU5-100	1	1	3	10	9	test_extra	id-1380_AU13-66_AU20-66_AU22-100_AU5-100	valence	-0.00815234071285346		2.8106604862550744
id-1380_AU13-66_AU20-66_AU22-100_AU5-100	1	1	3	10	9	test_extra	id-1380_AU13-66_AU20-66_AU22-100_AU5-100	arousal	0.2418527744813193		2.8106604862550744
id-1376_AU14-33_AU17-33_AU2-100_AU27i-33_AU43-66	1	1	3	10	10	test_extra	id-1376_AU14-33_AU17-33_AU2-100_AU27i-33_AU43-66	valence	0.0054348938085689745		2.1605088939031702
id-1376_AU14-33_AU17-33_AU2-100_AU27i-33_AU43-66	1	1	3	10	10	test_extra	id-1376_AU14-33_AU17-33_AU2-100_AU27i-33_AU43-66	arousal	0.2608749028113107		2.1605088939031702
id-1296_AU11-33_AU22-66_AU25-33	1	1	3	10	11	train	id-1296_AU11-33_AU22-66_AU25-33	valence	-0.0027174469042844872		0.985375352567644
id-1296_AU11-33_AU22-66_AU25-33	1	1	3	10	11	train	id-1296_AU11-33_AU22-66_AU25-33	arousal	0.02717446904284487		0.985375352567644
id-1347_AU10Open-33	1	1	3	10	12	train	id-1347_AU10Open-33	valence	-0.07608851331996565		1.3353538603842026
id-1347_AU10Open-33	1	1	3	10	12	train	id-1347_AU10Open-33	arousal	0.04347915046855179		1.3353538603842026
id-1335_AU12-100_AU20-100_AU5-33	1	1	3	10	13	test_extra	id-1335_AU12-100_AU20-100_AU5-33	valence	-0.010869787617137949		3.860647325309402
id-1335_AU12-100_AU20-100_AU5-33	1	1	3	10	13	test_extra	id-1335_AU12-100_AU20-100_AU5-33	arousal	0.0815234071285346		3.860647325309402
id-1274_AU10Open-66_AU2-33_AU43-100_AU9-66	1	1	3	10	14	test	id-1274_AU10Open-66_AU2-33_AU43-100_AU9-66	valence	-0.19565617710848307		1.0271338842430848
id-1274_AU10Open-66_AU2-33_AU43-100_AU9-66	1	1	3	10	14	test	id-1274_AU10Open-66_AU2-33_AU43-100_AU9-66	arousal	0.14130723902279332		1.0271338842430848
id-1306_AU12-100_AU14-33_AU17-33_AU27i-33	1	1	3	10	15	train	id-1306_AU12-100_AU14-33_AU17-33_AU27i-33	valence	-0.0054348938085689745		0.9853454687727208
id-1306_AU12-100_AU14-33_AU17-33_AU27i-33	1	1	3	10	15	train	id-1306_AU12-100_AU14-33_AU17-33_AU27i-33	arousal	0.42120427016409545		0.9853454687727208
id-1311_AU24-66	1	1	3	10	16	train	id-1311_AU24-66	valence	0.03532680975569833		0.8936085500245099
id-1311_AU24-66	1	1	3	10	16	train	id-1311_AU24-66	arousal	0.2608749028113107		0.8936085500245099
id-1347_AU4-33_AU43-66_AU9-66	1	1	3	10	17	train	id-1347_AU4-33_AU43-66_AU9-66	valence	-0.04347915046855179		1.0353778881617473
id-1347_AU4-33_AU43-66_AU9-66	1	1	3	10	17	train	id-1347_AU4-33_AU43-66_AU9-66	arousal	0.1032629823628105		1.0353778881617473
id-1373_AU15-33_AU16Open-33_AU2-33_AU4-100	1	1	3	10	18	train	id-1373_AU15-33_AU16Open-33_AU2-33_AU4-100	valence	-0.0054348938085689745		2.035477802677633
id-1373_AU15-33_AU16Open-33_AU2-33_AU4-100	1	1	3	10	18	train	id-1373_AU15-33_AU16Open-33_AU2-33_AU4-100	arousal	0.08967574784138807		2.035477802677633
id-1269_AU13-33_AU15-100	1	1	3	10	19	test_extra	id-1269_AU13-33_AU15-100	valence	-0.07065361951139666		1.0854241929555428
id-1269_AU13-33_AU15-100	1	1	3	10	19	test_extra	id-1269_AU13-33_AU15-100	arousal	0.11413276997994845		1.0854241929555428
id-1356_AU6-33	1	1	3	10	20	test	id-1356_AU6-33	valence	0.14130723902279332		1.1355589417144074
id-1356_AU6-33	1	1	3	10	20	test	id-1356_AU6-33	arousal	0.04619659737283628		1.1355589417144074
id-1366_AU15-66_AU24-33_AU4-100_AU9-100	1	1	3	10	21	train	id-1366_AU15-66_AU24-33_AU4-100_AU9-100	valence	0.15761192044850025		2.8690811969972856
id-1366_AU15-66_AU24-33_AU4-100_AU9-100	1	1	3	10	21	train	id-1366_AU15-66_AU24-33_AU4-100_AU9-100	arousal	0.19293873020419855		2.8690811969972856
id-1302_AU1-33_AU14-100_AU27i-100_AU9-100	1	1	3	10	22	train	id-1302_AU1-33_AU14-100_AU27i-100_AU9-100	valence	0.0		1.2937193917459808
id-1302_AU1-33_AU14-100_AU27i-100_AU9-100	1	1	3	10	22	train	id-1302_AU1-33_AU14-100_AU27i-100_AU9-100	arousal	0.2527225620984573		1.2937193917459808
id-1339_AU11-100_AU20-100_AU4-33	1	1	3	10	23	test_extra	id-1339_AU11-100_AU20-100_AU4-33	valence	0.0027174469042844872		3.6357225479587214
id-1339_AU11-100_AU20-100_AU4-33	1	1	3	10	23	test_extra	id-1339_AU11-100_AU20-100_AU4-33	arousal	0.3288110754184229		3.6357225479587214
id-1279_AU10Open-100_AU24-33	1	1	3	10	24	test_extra	id-1279_AU10Open-100_AU24-33	valence	0.01630468142570692		1.827280405403144
id-1279_AU10Open-100_AU24-33	1	1	3	10	24	test_extra	id-1279_AU10Open-100_AU24-33	arousal	0.11685021688423293		1.827280405403144
id-1354_AU16Open-33_AU20-33_AU25-100_AU7-66	1	1	3	10	25	train	id-1354_AU16Open-33_AU20-33_AU25-100_AU7-66	valence	-0.013587234521422437		0.985424555183272
id-1354_AU16Open-33_AU20-33_AU25-100_AU7-66	1	1	3	10	25	train	id-1354_AU16Open-33_AU20-33_AU25-100_AU7-66	arousal	0.09511064164995704		0.985424555183272
id-1356_AU12-33_AU15-66_AU16Open-66_AU6-33_AU9-100	1	1	3	10	26	test_extra	id-1356_AU12-33_AU15-66_AU16Open-66_AU6-33_AU9-100	valence	-0.0407617035642673		1.2185999772991636
id-1356_AU12-33_AU15-66_AU16Open-66_AU6-33_AU9-100	1	1	3	10	26	test_extra	id-1356_AU12-33_AU15-66_AU16Open-66_AU6-33_AU9-100	arousal	0.29348426566272456		1.2185999772991636
id-1296_AU1-66_AU17-100_AU27i-33_AU4-66_AU5-100	1	1	3	10	27	test	id-1296_AU1-66_AU17-100_AU27i-33_AU4-66_AU5-100	valence	0.010869787617137949		1.2604822701541707
id-1296_AU1-66_AU17-100_AU27i-33_AU4-66_AU5-100	1	1	3	10	27	test	id-1296_AU1-66_AU17-100_AU27i-33_AU4-66_AU5-100	arousal	0.2472876682898883		1.2604822701541707
id-1355_AU13-66_AU14-100_AU15-100_AU7-33	1	1	3	10	28	test	id-1355_AU13-66_AU14-100_AU15-100_AU7-33	valence	-0.02173957523427589		2.6938791342290638
id-1355_AU13-66_AU14-100_AU15-100_AU7-33	1	1	3	10	28	test	id-1355_AU13-66_AU14-100_AU15-100_AU7-33	arousal	0.3043540532798626		2.6938791342290638
id-1341_AU14-33_AU2-33	1	1	3	10	29	test_extra	id-1341_AU14-33_AU2-33	valence	0.4375089515898024		1.4105734911972831
id-1341_AU14-33_AU2-33	1	1	3	10	29	test_extra	id-1341_AU14-33_AU2-33	arousal	0.03804425665998282		1.4105734911972831
id-1260_AU12-100_AU4-66_AU43-66	1	1	3	10	30	train	id-1260_AU12-100_AU4-66_AU43-66	valence	0.0		1.7772226300621696
id-1260_AU12-100_AU4-66_AU43-66	1	1	3	10	30	train	id-1260_AU12-100_AU4-66_AU43-66	arousal	0.23098298686418134		1.7772226300621696
id-1315_AU12-66_AU17-33_AU2-100_AU4-100	1	1	3	10	31	test	id-1315_AU12-66_AU17-33_AU2-100_AU4-100	valence	-0.11141532307566396		2.41879847816017
id-1315_AU12-66_AU17-33_AU2-100_AU4-100	1	1	3	10	31	test	id-1315_AU12-66_AU17-33_AU2-100_AU4-100	arousal	0.13587234521422434		2.41879847816017
id-1279_AU13-66_AU20-33	1	1	3	10	32	train	id-1279_AU13-66_AU20-33	valence	-0.0054348938085689745		4.927754863514565
id-1279_AU13-66_AU20-33	1	1	3	10	32	train	id-1279_AU13-66_AU20-33	arousal	0.2364178806727504		4.927754863514565
id-1361_AU7-66	1	1	3	10	33	test_extra	id-1361_AU7-66	valence	-0.00815234071285346		5.444213289414622
id-1361_AU7-66	1	1	3	10	33	test_extra	id-1361_AU7-66	arousal	0.1847863894913451		5.444213289414622
id-1309_AU27i-33_AU4-100_AU43-66	1	1	3	10	34	train	id-1309_AU27i-33_AU4-100_AU43-66	valence	-0.07608851331996565		1.0187332167770364
id-1309_AU27i-33_AU4-100_AU43-66	1	1	3	10	34	train	id-1309_AU27i-33_AU4-100_AU43-66	arousal	0.15489447354421576		1.0187332167770364
id-1266_AU25-100_AU4-100	1	1	3	10	35	test_extra	id-1266_AU25-100_AU4-100	valence	-0.0054348938085689745		1.7021599646432148
id-1266_AU25-100_AU4-100	1	1	3	10	35	test_extra	id-1266_AU25-100_AU4-100	arousal	0.32337618160985393		1.7021599646432148
id-1297_AU13-66_AU7-33_AU9-33	1	1	3	10	36	test_extra	id-1297_AU13-66_AU7-33_AU9-33	valence	-0.05163149118140525		1.2354438740039768
id-1297_AU13-66_AU7-33_AU9-33	1	1	3	10	36	test_extra	id-1297_AU13-66_AU7-33_AU9-33	arousal	0.3451157568441299		1.2354438740039768
id-1342_AU14-33_AU20-33_AU43-100	1	1	3	11	1	test_extra	id-1342_AU14-33_AU20-33_AU43-100	valence	0.00815234071285346		1.2189917870891804
id-1342_AU14-33_AU20-33_AU43-100	1	1	3	11	1	test_extra	id-1342_AU14-33_AU20-33_AU43-100	arousal	0.20380851782133647		1.2189917870891804
id-1339_AU17-66_AU2-33_AU20-66_AU22-33	1	1	3	11	2	test_extra	id-1339_AU17-66_AU2-33_AU20-66_AU22-33	valence	0.26359234971559525		0.9769915890683478
id-1339_AU17-66_AU2-33_AU20-66_AU22-33	1	1	3	11	2	test_extra	id-1339_AU17-66_AU2-33_AU20-66_AU22-33	arousal	0.029891915947129363		0.9769915890683478
id-1356_AU22-100	1	1	3	11	3	test_extra	id-1356_AU22-100	valence	0.11956766378851742		3.0521804305208207
id-1356_AU22-100	1	1	3	11	3	test_extra	id-1356_AU22-100	arousal	0.0027174469042844872		3.0521804305208207
id-1354_AU13-66_AU24-100_AU27i-66	1	1	3	11	4	train	id-1354_AU13-66_AU24-100_AU27i-66	valence	-0.1820689425870606		1.0437254288772235
id-1354_AU13-66_AU24-100_AU27i-66	1	1	3	11	4	train	id-1354_AU13-66_AU24-100_AU27i-66	arousal	0.05978383189425871		1.0437254288772235
id-1270_AU11-100_AU15-100_AU20-66_AU7-66	1	1	3	11	5	test	id-1270_AU11-100_AU15-100_AU20-66_AU7-66	valence	-0.05978383189425871		2.127159179817681
id-1270_AU11-100_AU15-100_AU20-66_AU7-66	1	1	3	11	5	test	id-1270_AU11-100_AU15-100_AU20-66_AU7-66	arousal	0.11413276997994845		2.127159179817681
id-1345_AU10Open-33_AU27i-100	1	1	3	11	6	test_extra	id-1345_AU10Open-33_AU27i-100	valence	-0.0027174469042844872		6.661109588410909
id-1345_AU10Open-33_AU27i-100	1	1	3	11	6	test_extra	id-1345_AU10Open-33_AU27i-100	arousal	0.11413276997994845		6.661109588410909
id-1273_AU13-33_AU4-100_AU9-100	1	1	3	11	7	test_extra	id-1273_AU13-33_AU4-100_AU9-100	valence	0.3722902258869748		1.0271918406979241
id-1273_AU13-33_AU4-100_AU9-100	1	1	3	11	7	test_extra	id-1273_AU13-33_AU4-100_AU9-100	arousal	0.05978383189425871		1.0271918406979241
id-1309_AU26-33_AU5-66	1	1	3	11	8	test_extra	id-1309_AU26-33_AU5-66	valence	-0.0625012787985432		1.885460838340805
id-1309_AU26-33_AU5-66	1	1	3	11	8	test_extra	id-1309_AU26-33_AU5-66	arousal	0.07608851331996565		1.885460838340805
id-1290_AU1-66_AU22-33_AU25-66	1	1	3	11	9	train	id-1290_AU1-66_AU22-33_AU25-66	valence	0.2364178806727504		1.6520611368177924
id-1290_AU1-66_AU22-33_AU25-66	1	1	3	11	9	train	id-1290_AU1-66_AU22-33_AU25-66	arousal	0.04619659737283628		1.6520611368177924
id-1344_AU16Open-33	1	1	3	11	10	train	id-1344_AU16Open-33	valence	-0.0027174469042844872		2.2021575497929007
id-1344_AU16Open-33	1	1	3	11	10	train	id-1344_AU16Open-33	arousal	0.2092434116299055		2.2021575497929007
id-1335_AU20-33_AU22-100_AU4-100_AU7-66	1	1	3	11	11	train	id-1335_AU20-33_AU22-100_AU4-100_AU7-66	valence	-0.02173957523427589		6.3192341175163165
id-1335_AU20-33_AU22-100_AU4-100_AU7-66	1	1	3	11	11	train	id-1335_AU20-33_AU22-100_AU4-100_AU7-66	arousal	0.09782808855424154		6.3192341175163165
id-1285_AU26-33_AU5-100	1	1	3	11	12	test_extra	id-1285_AU26-33_AU5-100	valence	0.21467830543847446		1.3020959106870578
id-1285_AU26-33_AU5-100	1	1	3	11	12	test_extra	id-1285_AU26-33_AU5-100	arousal	0.11141532307566396		1.3020959106870578
id-1339_AU22-33	1	1	3	11	13	test_extra	id-1339_AU22-33	valence	0.21196085853419		1.610503037882154
id-1339_AU22-33	1	1	3	11	13	test_extra	id-1339_AU22-33	arousal	0.03532680975569833		1.610503037882154
id-1323_AU14-66_AU24-100_AU25-66_AU5-100_AU6-66	1	1	3	11	14	test_extra	id-1323_AU14-66_AU24-100_AU25-66_AU5-100_AU6-66	valence	-0.2608749028113107		0.6852445279473613
id-1323_AU14-66_AU24-100_AU25-66_AU5-100_AU6-66	1	1	3	11	14	test_extra	id-1323_AU14-66_AU24-100_AU25-66_AU5-100_AU6-66	arousal	0.11413276997994845		0.6852445279473613
id-1294_AU11-100_AU2-100_AU24-33	1	1	3	11	15	test_extra	id-1294_AU11-100_AU2-100_AU24-33	valence	-0.0027174469042844872		2.7105473504270776
id-1294_AU11-100_AU2-100_AU24-33	1	1	3	11	15	test_extra	id-1294_AU11-100_AU2-100_AU24-33	arousal	0.31522384089700045		2.7105473504270776
id-1260_AU22-100_AU25-100_AU26-100	1	1	3	11	16	test	id-1260_AU22-100_AU25-100_AU26-100	valence	0.07065361951139666		2.0020713395679195
id-1260_AU22-100_AU25-100_AU26-100	1	1	3	11	16	test	id-1260_AU22-100_AU25-100_AU26-100	arousal	0.30163660637557804		2.0020713395679195
id-1342_AU12-66_AU14-100_AU27i-33_AU6-66	1	1	3	11	17	test_extra	id-1342_AU12-66_AU14-100_AU27i-33_AU6-66	valence	-0.42392171706838		1.02713056381981
id-1342_AU12-66_AU14-100_AU27i-33_AU6-66	1	1	3	11	17	test_extra	id-1342_AU12-66_AU14-100_AU27i-33_AU6-66	arousal	0.07065361951139666		1.02713056381981
id-1335_AU10Open-100_AU27i-66_AU6-66_AU7-33	1	1	3	11	18	test_extra	id-1335_AU10Open-100_AU27i-66_AU6-66_AU7-33	valence	-0.2717446904284487		0.951977039585472
id-1335_AU10Open-100_AU27i-66_AU6-66_AU7-33	1	1	3	11	18	test_extra	id-1335_AU10Open-100_AU27i-66_AU6-66_AU7-33	arousal	0.13315489830993985		0.951977039585472
id-1311_AU10Open-66_AU15-100_AU2-66	1	1	3	11	19	train	id-1311_AU10Open-66_AU15-100_AU2-66	valence	-0.1440246859270778		0.7854759915389877
id-1311_AU10Open-66_AU15-100_AU2-66	1	1	3	11	19	train	id-1311_AU10Open-66_AU15-100_AU2-66	arousal	0.10869787617137948		0.7854759915389877
id-1380_AU12-33_AU13-33_AU22-33_AU9-33	1	1	3	11	20	train	id-1380_AU12-33_AU13-33_AU22-33_AU9-33	valence	-0.2418527744813193		1.243720478429168
id-1380_AU12-33_AU13-33_AU22-33_AU9-33	1	1	3	11	20	train	id-1380_AU12-33_AU13-33_AU22-33_AU9-33	arousal	0.14130723902279332		1.243720478429168
id-1293_AU14-33_AU15-33_AU43-66	1	1	3	11	21	test_extra	id-1293_AU14-33_AU15-33_AU43-66	valence	0.06793617260711217		0.7852544288398349
id-1293_AU14-33_AU15-33_AU43-66	1	1	3	11	21	test_extra	id-1293_AU14-33_AU15-33_AU43-66	arousal	0.1657642611613537		0.7852544288398349
id-1260_AU12-66_AU25-33	1	1	3	11	22	test	id-1260_AU12-66_AU25-33	valence	0.15489447354421576		0.8853717906604288
id-1260_AU12-66_AU25-33	1	1	3	11	22	test	id-1260_AU12-66_AU25-33	arousal	0.07065361951139666		0.8853717906604288
id-1358_AU11-100_AU12-100_AU14-100_AU16Open-66_AU6-100	1	1	3	11	23	test	id-1358_AU11-100_AU12-100_AU14-100_AU16Open-66_AU6-100	valence	-0.03260936285141384		1.843856253501144
id-1358_AU11-100_AU12-100_AU14-100_AU16Open-66_AU6-100	1	1	3	11	23	test	id-1358_AU11-100_AU12-100_AU14-100_AU16Open-66_AU6-100	arousal	0.23913532757703485		1.843856253501144
id-1378_AU1-66_AU20-66_AU7-33	1	1	3	11	24	test	id-1378_AU1-66_AU20-66_AU7-33	valence	0.01630468142570692		2.3771437851355586
id-1378_AU1-66_AU20-66_AU7-33	1	1	3	11	24	test	id-1378_AU1-66_AU20-66_AU7-33	arousal	0.17391660187420716		2.3771437851355586
id-1366_AU12-100	1	1	3	11	25	train	id-1366_AU12-100	valence	-0.2282655399598969		2.6439907004059933
id-1366_AU12-100	1	1	3	11	25	train	id-1366_AU12-100	arousal	0.07880596022425011		2.6439907004059933
id-1356_AU2-33_AU24-100_AU7-100	1	1	3	11	26	test_extra	id-1356_AU2-33_AU24-100_AU7-100	valence	-0.03804425665998282		4.177481683345833
id-1356_AU2-33_AU24-100_AU7-100	1	1	3	11	26	test_extra	id-1356_AU2-33_AU24-100_AU7-100	arousal	0.23370043376846586		4.177481683345833
id-1264_AU15-66_AU24-33_AU4-100	1	1	3	11	27	train	id-1264_AU15-66_AU24-33_AU4-100	valence	-0.00815234071285346		1.8521295375066984
id-1264_AU15-66_AU24-33_AU4-100	1	1	3	11	27	train	id-1264_AU15-66_AU24-33_AU4-100	arousal	0.13315489830993985		1.8521295375066984
id-1339_AU17-100_AU2-33_AU22-33_AU25-33	1	1	3	11	28	test_extra	id-1339_AU17-100_AU2-33_AU22-33_AU25-33	valence	-0.1820689425870606		3.2440374277939554
id-1339_AU17-100_AU2-33_AU22-33_AU25-33	1	1	3	11	28	test_extra	id-1339_AU17-100_AU2-33_AU22-33_AU25-33	arousal	0.07337106641568114		3.2440374277939554
id-1367_AU24-33_AU4-66_AU43-33	1	1	3	11	29	test_extra	id-1367_AU24-33_AU4-66_AU43-33	valence	0.2255480930556124		1.9271203610696832
id-1367_AU24-33_AU4-66_AU43-33	1	1	3	11	29	test_extra	id-1367_AU24-33_AU4-66_AU43-33	arousal	0.057066384989974225		1.9271203610696832
id-1296_AU12-100_AU14-66_AU17-100	1	1	3	11	30	test_extra	id-1296_AU12-100_AU14-66_AU17-100	valence	-0.105980429267095		0.7687540448787331
id-1296_AU12-100_AU14-66_AU17-100	1	1	3	11	30	test_extra	id-1296_AU12-100_AU14-66_AU17-100	arousal	0.13587234521422434		0.7687540448787331
id-1318_AU22-100_AU26-100_AU27i-33_AU4-33_AU6-33	1	1	3	11	31	test	id-1318_AU22-100_AU26-100_AU27i-33_AU4-33_AU6-33	valence	-0.3423983099398454		0.8768286469094164
id-1318_AU22-100_AU26-100_AU27i-33_AU4-33_AU6-33	1	1	3	11	31	test	id-1318_AU22-100_AU26-100_AU27i-33_AU4-33_AU6-33	arousal	0.08695830093710358		0.8768286469094164
id-1361_AU13-66_AU6-33	1	1	3	11	32	test_extra	id-1361_AU13-66_AU6-33	valence	-0.21739575234275896		1.9440185919484063
id-1361_AU13-66_AU6-33	1	1	3	11	32	test_extra	id-1361_AU13-66_AU6-33	arousal	0.13587234521422434		1.9440185919484063
id-1260_AU10Open-100_AU5-66	1	1	3	11	33	test_extra	id-1260_AU10Open-100_AU5-66	valence	-0.13587234521422434		0.8605087731593812
id-1260_AU10Open-100_AU5-66	1	1	3	11	33	test_extra	id-1260_AU10Open-100_AU5-66	arousal	0.11685021688423293		0.8605087731593812
id-1295_AU24-100_AU27i-33	1	1	3	11	34	test_extra	id-1295_AU24-100_AU27i-33	valence	0.07880596022425011		1.102189606957836
id-1295_AU24-100_AU27i-33	1	1	3	11	34	test_extra	id-1295_AU24-100_AU27i-33	arousal	0.12228511069280193		1.102189606957836
id-1318_AU15-100_AU4-33_AU43-100_AU9-66	1	1	3	11	35	train	id-1318_AU15-100_AU4-33_AU43-100_AU9-66	valence	-0.12228511069280193		1.5185267469023531
id-1318_AU15-100_AU4-33_AU43-100_AU9-66	1	1	3	11	35	train	id-1318_AU15-100_AU4-33_AU43-100_AU9-66	arousal	0.105980429267095		1.5185267469023531
id-1280_AU11-33_AU17-66_AU2-66_AU26-66_AU9-66	1	1	3	11	36	test	id-1280_AU11-33_AU17-66_AU2-66_AU26-66_AU9-66	valence	-0.5462068277611818		1.0603939469292527
id-1280_AU11-33_AU17-66_AU2-66_AU26-66_AU9-66	1	1	3	11	36	test	id-1280_AU11-33_AU17-66_AU2-66_AU26-66_AU9-66	arousal	0.1440246859270778		1.0603939469292527
id-1310_AU16Open-100_AU27i-66_AU6-33_AU7-66	1	1	3	12	1	test_extra	id-1310_AU16Open-100_AU27i-66_AU6-33_AU7-66	emotion	Boos	0.08203952811451043	4.886996382549113
id-1355_AU12-66_AU13-100_AU27i-100_AU5-100	1	1	3	12	2	test_extra	id-1355_AU12-66_AU13-100_AU27i-100_AU5-100	emotion	Verrassing	0.2047522623942589	2.003256730193243
id-1309_AU1-66_AU2-66_AU9-33	1	1	3	12	3	train	id-1309_AU1-66_AU2-66_AU9-33	emotion	Boos	0.05634249358183885	1.3531265696547052
id-1377_AU17-66_AU24-33_AU4-100	1	1	3	12	4	test	id-1377_AU17-66_AU24-33_AU4-100	emotion	Verdrietig	0.15555743206283792	1.1445935079100311
id-1279_AU12-100_AU15-100_AU26-100	1	1	3	12	5	test_extra	id-1279_AU12-100_AU15-100_AU26-100	emotion	Blij	0.1551672828717746	2.395041463012604
id-1302_AU13-66_AU22-33	1	1	3	12	6	train	id-1302_AU13-66_AU22-33	emotion	Verdrietig	0.06029619139291401	1.103119325100124
id-1291_AU15-66_AU20-66_AU7-100	1	1	3	12	7	train	id-1291_AU15-66_AU20-66_AU7-100	emotion	Verdrietig	0.08429249339206782	3.878401621328521
id-1295_AU12-66_AU17-66_AU25-66_AU9-100	1	1	3	12	8	test_extra	id-1295_AU12-66_AU17-66_AU25-66_AU9-100	emotion	Boos	0.161170086781222	1.1280879923870089
id-1296_AU1-66_AU11-33	1	1	3	12	9	test_extra	id-1296_AU1-66_AU11-33	emotion	Verdrietig	0.028998421619552236	1.1699530794212478
id-1376_AU1-100_AU13-33_AU14-33_AU27i-66	1	1	3	12	10	test	id-1376_AU1-100_AU13-33_AU14-33_AU27i-66	emotion	Verrassing	0.2135248306723745	1.0947099037948649
id-1285_AU11-33_AU17-33_AU5-100_AU7-33	1	1	3	12	11	test_extra	id-1285_AU11-33_AU17-33_AU5-100_AU7-33	emotion	Walging	0.014931296069009815	1.1450275776151102
id-1378_AU12-100_AU13-33_AU2-100_AU27i-100	1	1	3	12	12	test_extra	id-1378_AU12-100_AU13-33_AU2-100_AU27i-100	emotion	Verrassing	0.9836523212253926	0.8863600689655868
id-1273_AU1-33_AU13-33_AU26-33	1	1	3	12	13	test	id-1273_AU1-33_AU13-33_AU26-33	emotion	Blij	0.10327931069471508	4.729440249309847
id-1363_AU16Open-66_AU20-100_AU5-33	1	1	3	12	14	test_extra	id-1363_AU16Open-66_AU20-100_AU5-33	emotion	Verrassing	0.011889332454278478	10.762697897145696
id-1366_AU9-33	1	1	3	12	15	train	id-1366_AU9-33	emotion	Geen van allen	0.0	1.0446741639752872
id-1290_AU22-33	1	1	3	12	16	train	id-1290_AU22-33	emotion	Geen van allen	0.0	1.2950110358724487
id-1264_AU26-100_AU6-66_AU7-33	1	1	3	12	17	test_extra	id-1264_AU26-100_AU6-66_AU7-33	emotion	Verrassing	0.07210124883925212	0.9615464955677452
id-1377_AU10Open-100_AU22-66_AU4-66_AU5-100_AU7-100	1	1	3	12	18	train	id-1377_AU10Open-100_AU22-66_AU4-66_AU5-100_AU7-100	emotion	Bang	0.15846090010748914	1.4865531967843708
id-1344_AU10Open-33_AU16Open-100	1	1	3	12	19	test_extra	id-1344_AU10Open-33_AU16Open-100	emotion	Boos	0.2566439585989969	1.0115411828919605
id-1323_AU26-100	1	1	3	12	20	test_extra	id-1323_AU26-100	emotion	Verrassing	0.427206021211739	0.9281035078165588
id-1307_AU17-66_AU2-100_AU7-66	1	1	3	12	21	train	id-1307_AU17-66_AU2-100_AU7-66	emotion	Geen van allen	0.0	2.061612843634066
id-1341_AU1-33_AU15-33_AU2-66_AU4-33	1	1	3	12	22	test	id-1341_AU1-33_AU15-33_AU2-66_AU4-33	emotion	Verdrietig	0.0006427775838010094	1.1113373693551694
id-1380_AU17-33_AU27i-100_AU6-100	1	1	3	12	23	train	id-1380_AU17-33_AU27i-100_AU6-100	emotion	Bang	0.17521754243419388	3.078393048606813
id-1347_AU10Open-100_AU25-100	1	1	3	12	24	test_extra	id-1347_AU10Open-100_AU25-100	emotion	Boos	0.2518801968831564	0.8531790926936083
id-1280_AU13-100_AU17-100_AU4-100	1	1	3	12	25	test_extra	id-1280_AU13-100_AU17-100_AU4-100	emotion	Verdrietig	0.12710053000330668	1.2366165866551455
id-1310_AU12-33_AU14-33_AU22-100_AU6-100	1	1	3	12	26	test	id-1310_AU12-33_AU14-33_AU22-100_AU6-100	emotion	Boos	0.12209678775856207	1.1401308608474208
id-1318_AU13-33_AU20-66_AU5-100_AU6-66	1	1	3	12	27	train	id-1318_AU13-33_AU20-66_AU5-100_AU6-66	emotion	Bang	0.13824828674815307	1.0030324507861224
id-1363_AU1-33_AU15-100_AU2-66_AU22-66_AU5-100	1	1	3	12	28	test	id-1363_AU1-33_AU15-100_AU2-66_AU22-66_AU5-100	emotion	Verrassing	0.13824828674815312	1.2282346342944948
id-1291_AU4-100_AU43-33_AU7-66	1	1	3	12	29	test	id-1291_AU4-100_AU43-33_AU7-66	emotion	Geen van allen	0.0	4.078694301431824
id-1318_AU1-33_AU16Open-33_AU20-100_AU43-66	1	1	3	12	30	test_extra	id-1318_AU1-33_AU16Open-33_AU20-100_AU43-66	emotion	Bang	0.11404850684501013	1.0361566780338762
id-1318_AU1-33_AU13-66_AU26-66	1	1	3	12	31	test_extra	id-1318_AU1-33_AU13-66_AU26-66	emotion	Bang	0.19096564703496144	0.920136608194298
id-1311_AU12-33_AU27i-33_AU43-66_AU7-33	1	1	3	12	32	test_extra	id-1311_AU12-33_AU27i-33_AU43-66_AU7-33	emotion	Verrassing	0.2456379344134361	0.9530969273437222
id-1302_AU2-33_AU43-66	1	1	3	12	33	test_extra	id-1302_AU2-33_AU43-66	emotion	Boos	0.03715040590056898	1.2781206532636131
id-1363_AU16Open-66_AU4-33_AU6-66_AU9-100	1	1	3	12	34	test_extra	id-1363_AU16Open-66_AU4-33_AU6-66_AU9-100	emotion	Boos	0.2363800689941903	0.4947730521816993
id-1280_AU15-33_AU27i-66	1	1	3	12	35	test_extra	id-1280_AU15-33_AU27i-66	emotion	Verrassing	0.3202589490122522	1.3614614323960268
id-1370_AU1-33_AU26-66_AU7-100	1	1	3	12	36	test_extra	id-1370_AU1-33_AU26-66_AU7-100	emotion	Verrassing	0.5465504130766005	0.8947480584574805
id-1269_AU14-100_AU20-100_AU5-66	1	1	4	13	1	train	id-1269_AU14-100_AU20-100_AU5-66	emotion	Geen van allen	0.0	6.970688647589903
id-1344_AU13-100_AU17-100_AU9-66	1	1	4	13	2	train	id-1344_AU13-100_AU17-100_AU9-66	emotion	Geen van allen	0.0	4.98768870675417
id-1341_AU27i-66_AU43-33	1	1	4	13	3	test_extra	id-1341_AU27i-66_AU43-33	emotion	Verrassing	0.010192531223655	1.4948530130896005
id-1296_AU13-66_AU14-100_AU17-66	1	1	4	13	4	test_extra	id-1296_AU13-66_AU14-100_AU17-66	emotion	Blij	-0.00044209336537099996	2.36989089631402
id-1291_AU1-100_AU14-100_AU24-66	1	1	4	13	5	test_extra	id-1291_AU1-100_AU14-100_AU24-66	emotion	Blij	0.028484054041278	0.819734111081516
id-1291_AU20-33_AU24-100_AU25-33_AU27i-100	1	1	4	13	6	test	id-1291_AU20-33_AU24-100_AU25-33_AU27i-100	emotion	Bang	0.026906791483198998	1.6948227065104198
id-1355_AU13-33_AU15-100_AU2-100_AU20-66_AU4-33	1	1	4	13	7	train	id-1355_AU13-33_AU15-100_AU2-100_AU20-66_AU4-33	emotion	Bang	0.036161716720447996	1.20307491037829
id-1362_AU13-100_AU15-66_AU43-100_AU7-33	1	1	4	13	8	test_extra	id-1362_AU13-100_AU15-66_AU43-100_AU7-33	emotion	Geen van allen	0.0	2.45321497265763
id-1358_AU2-66_AU22-33_AU7-66	1	1	4	13	9	test_extra	id-1358_AU2-66_AU22-33_AU7-66	emotion	Verrassing	0.010192531223655	4.04536478375462
id-1380_AU5-66	1	1	4	13	10	test_extra	id-1380_AU5-66	emotion	Verrassing	0.00870869114402	1.70337073157179
id-1361_AU1-66_AU17-66_AU6-66_AU7-100	1	1	4	13	11	train	id-1361_AU1-66_AU17-66_AU6-66_AU7-100	emotion	Geen van allen	0.0	2.0615920855152603
id-1339_AU20-100_AU43-33_AU9-100	1	1	4	13	12	test_extra	id-1339_AU20-100_AU43-33_AU9-100	emotion	Walging	0.013848776596123998	1.71170473905545
id-1269_AU17-33_AU24-33_AU6-66	1	1	4	13	13	train	id-1269_AU17-33_AU24-33_AU6-66	emotion	Verdrietig	0.023581034421487002	4.961924793800558
id-1297_AU2-66_AU22-66	1	1	4	13	14	test_extra	id-1297_AU2-66_AU22-66	emotion	Boos	-0.001169291485882	1.5447233347379101
id-1339_AU10Open-100_AU12-33_AU20-100_AU27i-33	1	1	4	13	15	test	id-1339_AU10Open-100_AU12-33_AU20-100_AU27i-33	emotion	Blij	0.051351414946635004	1.56138893483831
