	rep	session	run	block	trial	data_split	trial_type	rating_type	rating	rating_intensity	rating_RT
id-1342_AU12-100_AU20-100_AU6-66	1	1	1	1	1	train	id-1342_AU12-100_AU20-100_AU6-66	valence	-0.0027174469042844872		3.452347999798804
id-1342_AU12-100_AU20-100_AU6-66	1	1	1	1	1	train	id-1342_AU12-100_AU20-100_AU6-66	arousal	-0.4347915046855179		3.452347999798804
id-1260_AU12-66_AU25-33	1	1	1	1	2	test	id-1260_AU12-66_AU25-33	valence	-0.06793617260711217		1.893893187147114
id-1260_AU12-66_AU25-33	1	1	1	1	2	test	id-1260_AU12-66_AU25-33	arousal	0.09511064164995704		1.893893187147114
id-1264_AU14-66_AU15-66_AU20-66_AU6-33	1	1	1	1	3	test_extra	id-1264_AU14-66_AU15-66_AU20-66_AU6-33	valence	0.100545535458526		4.2025270757021636
id-1264_AU14-66_AU15-66_AU20-66_AU6-33	1	1	1	1	3	test_extra	id-1264_AU14-66_AU15-66_AU20-66_AU6-33	arousal	0.14130723902279332		4.2025270757021636
id-1376_AU14-33_AU17-33_AU2-100_AU27i-33_AU43-66	1	1	1	1	4	test_extra	id-1376_AU14-33_AU17-33_AU2-100_AU27i-33_AU43-66	valence	0.524467252526906		4.102437454739629
id-1376_AU14-33_AU17-33_AU2-100_AU27i-33_AU43-66	1	1	1	1	4	test_extra	id-1376_AU14-33_AU17-33_AU2-100_AU27i-33_AU43-66	arousal	0.3913123542169661		4.102437454739629
id-1360_AU1-100_AU11-66	1	1	1	1	5	test	id-1360_AU1-100_AU11-66	valence	-0.00815234071285346		2.4689298399771356
id-1360_AU1-100_AU11-66	1	1	1	1	5	test	id-1360_AU1-100_AU11-66	arousal	0.4619659737283627		2.4689298399771356
id-1294_AU10Open-66_AU27i-66_AU43-33_AU7-66	1	1	1	1	6	train	id-1294_AU10Open-66_AU27i-66_AU43-33_AU7-66	valence	-0.00815234071285346		6.069456397091926
id-1294_AU10Open-66_AU27i-66_AU43-33_AU7-66	1	1	1	1	6	train	id-1294_AU10Open-66_AU27i-66_AU43-33_AU7-66	arousal	0.8179515181896305		6.069456397091926
id-1293_AU15-33_AU17-100_AU27i-33_AU7-100	1	1	1	1	7	test_extra	id-1293_AU15-33_AU17-100_AU27i-33_AU7-100	valence	-0.524467252526906		2.1937998231715032
id-1293_AU15-33_AU17-100_AU27i-33_AU7-100	1	1	1	1	7	test_extra	id-1293_AU15-33_AU17-100_AU27i-33_AU7-100	arousal	0.6358825756025699		2.1937998231715032
id-1373_AU1-66	1	1	1	1	8	train	id-1373_AU1-66	valence	0.3179412878012849		5.727747271903354
id-1373_AU1-66	1	1	1	1	8	train	id-1373_AU1-66	arousal	0.3478332037484143		5.727747271903354
id-1345_AU17-66_AU25-66_AU6-100	1	1	1	1	9	test	id-1345_AU17-66_AU25-66_AU6-100	valence	-0.3641378851741212		3.168952267857094
id-1345_AU17-66_AU25-66_AU6-100	1	1	1	1	9	test	id-1345_AU17-66_AU25-66_AU6-100	arousal	0.41305192945124203		3.168952267857094
id-1315_AU27i-66	1	1	1	1	10	train	id-1315_AU27i-66	valence	-0.5054451241969146		2.6939056236024044
id-1315_AU27i-66	1	1	1	1	10	train	id-1315_AU27i-66	arousal	-0.5326195932397594		2.6939056236024044
id-1376_AU13-66_AU22-100_AU27i-33_AU6-33	1	1	1	1	11	test_extra	id-1376_AU13-66_AU22-100_AU27i-33_AU6-33	valence	-0.0027174469042844872		2.5688793998870096
id-1376_AU13-66_AU22-100_AU27i-33_AU6-33	1	1	1	1	11	test_extra	id-1376_AU13-66_AU22-100_AU27i-33_AU6-33	arousal	-0.7581676862953719		2.5688793998870096
id-1270_AU1-100_AU11-33_AU24-33_AU6-33	1	1	1	1	12	train	id-1270_AU1-100_AU11-33_AU24-33_AU6-33	valence	0.0		1.7771981812584272
id-1270_AU1-100_AU11-33_AU24-33_AU6-33	1	1	1	1	12	train	id-1270_AU1-100_AU11-33_AU24-33_AU6-33	arousal	0.0		1.7771981812584272
id-1310_AU14-100_AU43-100_AU9-33	1	1	1	1	13	test_extra	id-1310_AU14-100_AU43-100_AU9-33	valence	-0.6005557658468715		4.235765314424498
id-1310_AU14-100_AU43-100_AU9-33	1	1	1	1	13	test_extra	id-1310_AU14-100_AU43-100_AU9-33	arousal	0.11413276997994845		4.235765314424498
id-1315_AU12-66_AU17-33_AU2-100_AU4-100	1	1	1	1	14	test	id-1315_AU12-66_AU17-33_AU2-100_AU4-100	valence	-0.5543591684740353		3.4355618032986968
id-1315_AU12-66_AU17-33_AU2-100_AU4-100	1	1	1	1	14	test	id-1315_AU12-66_AU17-33_AU2-100_AU4-100	arousal	0.26902724352416424		3.4355618032986968
id-1291_AU4-100_AU43-33_AU7-66	1	1	1	1	15	test	id-1291_AU4-100_AU43-33_AU7-66	valence	0.31522384089700045		2.0605000360719714
id-1291_AU4-100_AU43-33_AU7-66	1	1	1	1	15	test	id-1291_AU4-100_AU43-33_AU7-66	arousal	0.42120427016409545		2.0605000360719714
id-1260_AU13-33_AU4-66	1	1	1	1	16	test_extra	id-1260_AU13-33_AU4-66	valence	0.0625012787985432		4.477478393921047
id-1260_AU13-33_AU4-66	1	1	1	1	16	test_extra	id-1260_AU13-33_AU4-66	arousal	0.057066384989974225		4.477478393921047
id-1377_AU17-66_AU24-33_AU4-100	1	1	1	1	17	test	id-1377_AU17-66_AU24-33_AU4-100	valence	-0.5163149118140525		4.319077492700671
id-1377_AU17-66_AU24-33_AU4-100	1	1	1	1	17	test	id-1377_AU17-66_AU24-33_AU4-100	arousal	0.4864229958669232		4.319077492700671
id-1269_AU15-66_AU17-33_AU24-100	1	1	1	1	18	test_extra	id-1269_AU15-66_AU17-33_AU24-100	valence	-0.22283064615132792		2.8772542962360603
id-1269_AU15-66_AU17-33_AU24-100	1	1	1	1	18	test_extra	id-1269_AU15-66_AU17-33_AU24-100	arousal	-0.4429438453983714		2.8772542962360603
id-1360_AU1-33_AU15-33_AU26-33	1	1	1	1	19	test_extra	id-1360_AU1-33_AU15-33_AU26-33	valence	-0.5706638498997423		4.269143010484186
id-1360_AU1-33_AU15-33_AU26-33	1	1	1	1	19	test_extra	id-1360_AU1-33_AU15-33_AU26-33	arousal	-0.4755532082497852		4.269143010484186
id-1373_AU12-66_AU15-66_AU16Open-33	1	1	1	1	20	test_extra	id-1373_AU12-66_AU15-66_AU16Open-33	valence	0.11141532307566396		2.6694631586597097
id-1373_AU12-66_AU15-66_AU16Open-33	1	1	1	1	20	test_extra	id-1373_AU12-66_AU15-66_AU16Open-33	arousal	0.5190323587183371		2.6694631586597097
id-1291_AU15-100_AU22-66	1	1	1	1	21	train	id-1291_AU15-100_AU22-66	valence	-0.29891915947129355		5.753235365053115
id-1291_AU15-100_AU22-66	1	1	1	1	21	train	id-1291_AU15-100_AU22-66	arousal	-0.30163660637557804		5.753235365053115
id-1294_AU16Open-100_AU20-33_AU43-33	1	1	1	1	22	train	id-1294_AU16Open-100_AU20-33_AU43-33	valence	0.0		2.385461300436873
id-1294_AU16Open-100_AU20-33_AU43-33	1	1	1	1	22	train	id-1294_AU16Open-100_AU20-33_AU43-33	arousal	0.0		2.385461300436873
id-1306_AU16Open-66_AU2-33_AU5-33_AU6-100	1	1	1	1	23	train	id-1306_AU16Open-66_AU2-33_AU5-33_AU6-100	valence	-0.08695830093710358		6.402650474319671
id-1306_AU16Open-66_AU2-33_AU5-33_AU6-100	1	1	1	1	23	train	id-1306_AU16Open-66_AU2-33_AU5-33_AU6-100	arousal	0.09239319474567256		6.402650474319671
id-1358_AU1-33_AU4-33_AU9-33	1	1	1	1	24	train	id-1358_AU1-33_AU4-33_AU9-33	valence	-0.1711991549699227		2.643977480354806
id-1358_AU1-33_AU4-33_AU9-33	1	1	1	1	24	train	id-1358_AU1-33_AU4-33_AU9-33	arousal	-0.21739575234275896		2.643977480354806
id-1344_AU13-100_AU17-100_AU9-66	1	1	1	1	25	train	id-1344_AU13-100_AU17-100_AU9-66	valence	-0.6847966198796908		2.127264785722218
id-1344_AU13-100_AU17-100_AU9-66	1	1	1	1	25	train	id-1344_AU13-100_AU17-100_AU9-66	arousal	0.5489242746654663		2.127264785722218
id-1273_AU12-100_AU16Open-100_AU5-66	1	1	1	1	26	test_extra	id-1273_AU12-100_AU16Open-100_AU5-66	valence	0.44566129230265583		2.852257624195772
id-1273_AU12-100_AU16Open-100_AU5-66	1	1	1	1	26	test_extra	id-1273_AU12-100_AU16Open-100_AU5-66	arousal	0.5815336375168803		2.852257624195772
id-1323_AU22-66_AU7-100	1	1	1	1	27	test_extra	id-1323_AU22-66_AU7-100	valence	0.11141532307566396		2.5104796759042074
id-1323_AU22-66_AU7-100	1	1	1	1	27	test_extra	id-1323_AU22-66_AU7-100	arousal	0.5706638498997423		2.5104796759042074
id-1380_AU25-33_AU4-66_AU5-100	1	1	1	1	28	train	id-1380_AU25-33_AU4-66_AU5-100	valence	-0.42120427016409545		3.4522837045296915
id-1380_AU25-33_AU4-66_AU5-100	1	1	1	1	28	train	id-1380_AU25-33_AU4-66_AU5-100	arousal	0.5462068277611818		3.4522837045296915
id-1311_AU16Open-100_AU43-100_AU6-66_AU9-100	1	1	1	1	29	test	id-1311_AU16Open-100_AU43-100_AU6-66_AU9-100	valence	-0.5135974649097681		3.2439193429436277
id-1311_AU16Open-100_AU43-100_AU6-66_AU9-100	1	1	1	1	29	test	id-1311_AU16Open-100_AU43-100_AU6-66_AU9-100	arousal	0.26359234971559525		3.2439193429436277
id-1342_AU17-100_AU2-100_AU20-33_AU26-33	1	1	1	1	30	test_extra	id-1342_AU17-100_AU2-100_AU20-33_AU26-33	valence	-0.5407719339526129		1.6021626151086819
id-1342_AU17-100_AU2-100_AU20-33_AU26-33	1	1	1	1	30	test_extra	id-1342_AU17-100_AU2-100_AU20-33_AU26-33	arousal	-0.5380544870483285		1.6021626151086819
id-1264_AU22-100_AU26-33	1	1	1	1	31	test_extra	id-1264_AU22-100_AU26-33	valence	-0.7690374739125099		2.8271996754447173
id-1264_AU22-100_AU26-33	1	1	1	1	31	test_extra	id-1264_AU22-100_AU26-33	arousal	0.4510961861112248		2.8271996754447173
id-1302_AU1-33_AU22-100	1	1	1	1	32	test_extra	id-1302_AU1-33_AU22-100	valence	0.1820689425870606		2.3271065529570483
id-1302_AU1-33_AU22-100	1	1	1	1	32	test_extra	id-1302_AU1-33_AU22-100	arousal	0.2500051151941728		2.3271065529570483
id-1270_AU10Open-66_AU12-33_AU14-33	1	1	1	1	33	test_extra	id-1270_AU10Open-66_AU12-33_AU14-33	valence	0.04347915046855179		4.110660306365388
id-1270_AU10Open-66_AU12-33_AU14-33	1	1	1	1	33	test_extra	id-1270_AU10Open-66_AU12-33_AU14-33	arousal	0.0		4.110660306365388
id-1377_AU10Open-100_AU22-66_AU4-66_AU5-100_AU7-100	1	1	1	1	34	test_extra	id-1377_AU10Open-100_AU22-66_AU4-66_AU5-100_AU7-100	valence	-0.00815234071285346		2.7772579486900213
id-1377_AU10Open-100_AU22-66_AU4-66_AU5-100_AU7-100	1	1	1	1	34	test_extra	id-1377_AU10Open-100_AU22-66_AU4-66_AU5-100_AU7-100	arousal	0.3994646949298196		2.7772579486900213
id-1373_AU22-66_AU4-100	1	1	1	1	35	test_extra	id-1373_AU22-66_AU4-100	valence	0.4646834206326473		2.702315625772826
id-1373_AU22-66_AU4-100	1	1	1	1	35	test_extra	id-1373_AU22-66_AU4-100	arousal	0.3315285223227074		2.702315625772826
id-1370_AU10Open-100_AU12-100_AU24-66	1	1	1	1	36	train	id-1370_AU10Open-100_AU12-100_AU24-66	valence	-0.0054348938085689745		3.3355802466812747
id-1370_AU10Open-100_AU12-100_AU24-66	1	1	1	1	36	train	id-1370_AU10Open-100_AU12-100_AU24-66	arousal	0.19022128329991408		3.3355802466812747
id-1377_AU17-66_AU2-33_AU20-66_AU5-66	1	1	1	2	1	test_extra	id-1377_AU17-66_AU2-33_AU20-66_AU5-66	valence	0.4918578896754921		5.185807891171862
id-1377_AU17-66_AU2-33_AU20-66_AU5-66	1	1	1	2	1	test_extra	id-1377_AU17-66_AU2-33_AU20-66_AU5-66	arousal	0.3913123542169661		5.185807891171862
id-1356_AU1-33_AU12-33_AU24-33_AU6-100	1	1	1	2	2	test_extra	id-1356_AU1-33_AU12-33_AU24-33_AU6-100	valence	0.14130723902279332		3.46082048610333
id-1356_AU1-33_AU12-33_AU24-33_AU6-100	1	1	1	2	2	test_extra	id-1356_AU1-33_AU12-33_AU24-33_AU6-100	arousal	0.3587029913655523		3.46082048610333
id-1289_AU10Open-100_AU4-66_AU43-33	1	1	1	2	3	test_extra	id-1289_AU10Open-100_AU4-66_AU43-33	valence	0.00815234071285346		2.91888774619838
id-1289_AU10Open-100_AU4-66_AU43-33	1	1	1	2	3	test_extra	id-1289_AU10Open-100_AU4-66_AU43-33	arousal	0.19293873020419855		2.91888774619838
id-1296_AU11-66_AU26-66_AU4-66_AU6-100	1	1	1	2	4	test_extra	id-1296_AU11-66_AU26-66_AU4-66_AU6-100	valence	-0.4592485268240783		6.777784988775238
id-1296_AU11-66_AU26-66_AU4-66_AU6-100	1	1	1	2	4	test_extra	id-1296_AU11-66_AU26-66_AU4-66_AU6-100	arousal	-0.4674008675369317		6.777784988775238
id-1355_AU14-33_AU7-100	1	1	1	2	5	train	id-1355_AU14-33_AU7-100	valence	0.2581574559070263		1.5687985025542732
id-1355_AU14-33_AU7-100	1	1	1	2	5	train	id-1355_AU14-33_AU7-100	arousal	-0.4510961861112248		1.5687985025542732
id-1380_AU12-33_AU13-33_AU22-33_AU9-33	1	1	1	2	6	test_extra	id-1380_AU12-33_AU13-33_AU22-33_AU9-33	valence	0.3940298011212506		4.977621322605046
id-1380_AU12-33_AU13-33_AU22-33_AU9-33	1	1	1	2	6	test_extra	id-1380_AU12-33_AU13-33_AU22-33_AU9-33	arousal	-0.5135974649097681		4.977621322605046
id-1296_AU1-66_AU17-100_AU27i-33_AU4-66_AU5-100	1	1	1	2	7	test	id-1296_AU1-66_AU17-100_AU27i-33_AU4-66_AU5-100	valence	-0.3967472480255351		3.3272924960783707
id-1296_AU1-66_AU17-100_AU27i-33_AU4-66_AU5-100	1	1	1	2	7	test	id-1296_AU1-66_AU17-100_AU27i-33_AU4-66_AU5-100	arousal	0.3260936285141384		3.3272924960783707
id-1367_AU24-33_AU4-66_AU43-33	1	1	1	2	8	test_extra	id-1367_AU24-33_AU4-66_AU43-33	valence	-0.7011013013053977		5.52766915164284
id-1367_AU24-33_AU4-66_AU43-33	1	1	1	2	8	test_extra	id-1367_AU24-33_AU4-66_AU43-33	arousal	0.0842408540328191		5.52766915164284
id-1354_AU1-66_AU10Open-100	1	1	1	2	9	test	id-1354_AU1-66_AU10Open-100	valence	-0.40761703564267293		5.602644376835086
id-1354_AU1-66_AU10Open-100	1	1	1	2	9	test	id-1354_AU1-66_AU10Open-100	arousal	0.4565310799197938		5.602644376835086
id-1342_AU1-100_AU11-33_AU43-33	1	1	1	2	10	train	id-1342_AU1-100_AU11-33_AU43-33	valence	-0.057066384989974225		1.6520844193855737
id-1342_AU1-100_AU11-33_AU43-33	1	1	1	2	10	train	id-1342_AU1-100_AU11-33_AU43-33	arousal	0.09511064164995704		1.6520844193855737
id-1341_AU12-66_AU20-66	1	1	1	2	11	train	id-1341_AU12-66_AU20-66	valence	0.6902315136882597		3.5856821984525595
id-1341_AU12-66_AU20-66	1	1	1	2	11	train	id-1341_AU12-66_AU20-66	arousal	0.33424596922699185		3.5856821984525595
id-1289_AU1-66_AU12-100_AU27i-100	1	1	1	2	12	test_extra	id-1289_AU1-66_AU12-100_AU27i-100	valence	0.44566129230265583		2.635607323139993
id-1289_AU1-66_AU12-100_AU27i-100	1	1	1	2	12	test_extra	id-1289_AU1-66_AU12-100_AU27i-100	arousal	0.5299021463354749		2.635607323139993
id-1354_AU12-66_AU15-66_AU2-66_AU5-66_AU9-66	1	1	1	2	13	train	id-1354_AU12-66_AU15-66_AU2-66_AU5-66_AU9-66	valence	-0.4837055489626387		4.23593676847122
id-1354_AU12-66_AU15-66_AU2-66_AU5-66_AU9-66	1	1	1	2	13	train	id-1354_AU12-66_AU15-66_AU2-66_AU5-66_AU9-66	arousal	0.418486823259811		4.23593676847122
id-1302_AU1-33_AU14-100_AU27i-100_AU9-100	1	1	1	2	14	train	id-1302_AU1-33_AU14-100_AU27i-100_AU9-100	valence	-0.7065361951139666		3.7690064207727114
id-1302_AU1-33_AU14-100_AU27i-100_AU9-100	1	1	1	2	14	train	id-1302_AU1-33_AU14-100_AU27i-100_AU9-100	arousal	0.5190323587183371		3.7690064207727114
id-1293_AU2-33_AU25-33_AU7-100	1	1	1	2	15	train	id-1293_AU2-33_AU25-33_AU7-100	valence	-0.0054348938085689745		3.710633561948272
id-1293_AU2-33_AU25-33_AU7-100	1	1	1	2	15	train	id-1293_AU2-33_AU25-33_AU7-100	arousal	0.19022128329991408		3.710633561948272
id-1306_AU17-100_AU5-66	1	1	1	2	16	test_extra	id-1306_AU17-100_AU5-66	valence	0.0		3.569062928163476
id-1306_AU17-100_AU5-66	1	1	1	2	16	test_extra	id-1306_AU17-100_AU5-66	arousal	0.0		3.569062928163476
id-1373_AU5-33	1	1	1	2	17	test_extra	id-1373_AU5-33	valence	-0.0054348938085689745		4.569138392093008
id-1373_AU5-33	1	1	1	2	17	test_extra	id-1373_AU5-33	arousal	-0.4347915046855179		4.569138392093008
id-1344_AU13-66_AU14-66_AU24-33_AU9-33	1	1	1	2	18	test	id-1344_AU13-66_AU14-66_AU24-33_AU9-33	valence	-0.5462068277611818		7.769572098390199
id-1344_AU13-66_AU14-66_AU24-33_AU9-33	1	1	1	2	18	test	id-1344_AU13-66_AU14-66_AU24-33_AU9-33	arousal	-0.5597940622826043		7.769572098390199
id-1358_AU11-100_AU12-100_AU14-100_AU16Open-66_AU6-100	1	1	1	2	19	test	id-1358_AU11-100_AU12-100_AU14-100_AU16Open-66_AU6-100	valence	0.5652289560911733		1.9688723364633915
id-1358_AU11-100_AU12-100_AU14-100_AU16Open-66_AU6-100	1	1	1	2	19	test	id-1358_AU11-100_AU12-100_AU14-100_AU16Open-66_AU6-100	arousal	0.6222953410811475		1.9688723364633915
id-1280_AU15-33_AU27i-66	1	1	1	2	20	train	id-1280_AU15-33_AU27i-66	valence	0.0027174469042844872		5.0608568295319865
id-1280_AU15-33_AU27i-66	1	1	1	2	20	train	id-1280_AU15-33_AU27i-66	arousal	0.4266391639726645		5.0608568295319865
id-1358_AU11-33_AU2-100	1	1	1	2	21	train	id-1358_AU11-33_AU2-100	valence	0.4429438453983714		5.502618447429995
id-1358_AU11-33_AU2-100	1	1	1	2	21	train	id-1358_AU11-33_AU2-100	arousal	-0.6603395977411303		5.502618447429995
id-1274_AU10Open-100_AU15-100	1	1	1	2	22	train	id-1274_AU10Open-100_AU15-100	valence	-0.5000102303883456		4.10243292690393
id-1274_AU10Open-100_AU15-100	1	1	1	2	22	train	id-1274_AU10Open-100_AU15-100	arousal	-0.418486823259811		4.10243292690393
id-1342_AU12-66_AU14-100_AU27i-33_AU6-66	1	1	1	2	23	train	id-1342_AU12-66_AU14-100_AU27i-33_AU6-66	valence	-0.5978383189425871		4.8274918717797854
id-1342_AU12-66_AU14-100_AU27i-33_AU6-66	1	1	1	2	23	train	id-1342_AU12-66_AU14-100_AU27i-33_AU6-66	arousal	0.4755532082497852		4.8274918717797854
id-1273_AU10Open-66_AU12-66_AU25-66	1	1	1	2	24	train	id-1273_AU10Open-66_AU12-66_AU25-66	valence	0.0		2.7272483043998363
id-1273_AU10Open-66_AU12-66_AU25-66	1	1	1	2	24	train	id-1273_AU10Open-66_AU12-66_AU25-66	arousal	0.4864229958669232		2.7272483043998363
id-1310_AU11-33_AU26-33	1	1	1	2	25	train	id-1310_AU11-33_AU26-33	valence	-0.11685021688423293		3.127577810102593
id-1310_AU11-33_AU26-33	1	1	1	2	25	train	id-1310_AU11-33_AU26-33	arousal	0.10869787617137948		3.127577810102593
id-1318_AU10Open-66	1	1	1	2	26	test_extra	id-1318_AU10Open-66	valence	-0.36685533207840576		2.785635652298879
id-1318_AU10Open-66	1	1	1	2	26	test_extra	id-1318_AU10Open-66	arousal	-0.00815234071285346		2.785635652298879
id-1335_AU13-33_AU4-66_AU9-33	1	1	1	2	27	test_extra	id-1335_AU13-33_AU4-66_AU9-33	valence	0.6168604472725784		3.218991494006332
id-1335_AU13-33_AU4-66_AU9-33	1	1	1	2	27	test_extra	id-1335_AU13-33_AU4-66_AU9-33	arousal	0.3043540532798626		3.218991494006332
id-1295_AU11-66_AU13-66_AU17-33_AU9-66	1	1	1	2	28	test_extra	id-1295_AU11-66_AU13-66_AU17-33_AU9-66	valence	-0.5000102303883456		3.6523938214959344
id-1295_AU11-66_AU13-66_AU17-33_AU9-66	1	1	1	2	28	test_extra	id-1295_AU11-66_AU13-66_AU17-33_AU9-66	arousal	-0.4538136330155093		3.6523938214959344
id-1297_AU10Open-100_AU13-100_AU16Open-100_AU22-66_AU25-100	1	1	1	2	29	test_extra	id-1297_AU10Open-100_AU13-100_AU16Open-100_AU22-66_AU25-100	valence	-0.418486823259811		4.352425003191456
id-1297_AU10Open-100_AU13-100_AU16Open-100_AU22-66_AU25-100	1	1	1	2	29	test_extra	id-1297_AU10Open-100_AU13-100_AU16Open-100_AU22-66_AU25-100	arousal	0.4375089515898024		4.352425003191456
id-1280_AU13-100_AU17-100_AU4-100	1	1	1	2	30	test_extra	id-1280_AU13-100_AU17-100_AU4-100	valence	-0.2364178806727504		3.068945053504649
id-1280_AU13-100_AU17-100_AU4-100	1	1	1	2	30	test_extra	id-1280_AU13-100_AU17-100_AU4-100	arousal	-0.0027174469042844872		3.068945053504649
id-1355_AU26-33_AU7-100	1	1	1	2	31	test_extra	id-1355_AU26-33_AU7-100	valence	-0.26359234971559525		2.035376584630285
id-1355_AU26-33_AU7-100	1	1	1	2	31	test_extra	id-1355_AU26-33_AU7-100	arousal	0.3722902258869748		2.035376584630285
id-1363_AU13-66_AU22-100_AU7-66	1	1	1	2	32	train	id-1363_AU13-66_AU22-100_AU7-66	valence	0.4157693763555265		1.4854096529215894
id-1363_AU13-66_AU22-100_AU7-66	1	1	1	2	32	train	id-1363_AU13-66_AU22-100_AU7-66	arousal	-0.5434893808568974		1.4854096529215894
id-1264_AU10Open-33_AU25-66_AU4-66	1	1	1	2	33	test	id-1264_AU10Open-33_AU25-66_AU4-66	valence	-0.312506393992716		1.1771041833872005
id-1264_AU10Open-33_AU25-66_AU4-66	1	1	1	2	33	test	id-1264_AU10Open-33_AU25-66_AU4-66	arousal	-0.4918578896754921		1.1771041833872005
id-1302_AU15-66_AU24-100_AU25-100_AU43-33	1	1	1	2	34	test	id-1302_AU15-66_AU24-100_AU25-100_AU43-33	valence	0.0054348938085689745		2.085532628943838
id-1302_AU15-66_AU24-100_AU25-100_AU43-33	1	1	1	2	34	test	id-1302_AU15-66_AU24-100_AU25-100_AU43-33	arousal	-0.5869685313254491		2.085532628943838
id-1266_AU13-66_AU17-100_AU2-100_AU9-33	1	1	1	2	35	test	id-1266_AU13-66_AU17-100_AU2-100_AU9-33	valence	-0.4402263984940868		4.6274614447229405
id-1266_AU13-66_AU17-100_AU2-100_AU9-33	1	1	1	2	35	test	id-1266_AU13-66_AU17-100_AU2-100_AU9-33	arousal	-0.524467252526906		4.6274614447229405
id-1377_AU13-66_AU14-33_AU22-33_AU7-100_AU9-66	1	1	1	2	36	test_extra	id-1377_AU13-66_AU14-33_AU22-33_AU7-100_AU9-66	valence	0.2255480930556124		2.810590970108024
id-1377_AU13-66_AU14-33_AU22-33_AU7-100_AU9-66	1	1	1	2	36	test_extra	id-1377_AU13-66_AU14-33_AU22-33_AU7-100_AU9-66	arousal	0.3043540532798626		2.810590970108024
id-1291_AU10Open-66_AU15-33_AU20-100_AU4-100	1	1	1	3	1	test_extra	id-1291_AU10Open-66_AU15-33_AU20-100_AU4-100	emotion	Walging	0.4626387632795178	2.9532983925273584
id-1274_AU26-100_AU9-33	1	1	1	3	2	test_extra	id-1274_AU26-100_AU9-33	emotion	Walging	0.6914693574971733	1.2530251225452955
id-1344_AU16Open-33	1	1	1	3	3	train	id-1344_AU16Open-33	emotion	Geen van allen	0.0	3.51987221843774
id-1342_AU13-100_AU26-66	1	1	1	3	4	test_extra	id-1342_AU13-100_AU26-66	emotion	Verrassing	0.41080802849494585	4.128438702611675
id-1274_AU10Open-66_AU2-33_AU43-100_AU9-66	1	1	1	3	5	test	id-1274_AU10Open-66_AU2-33_AU43-100_AU9-66	emotion	Walging	0.5858035188315611	2.8700269647724777
id-1270_AU14-66_AU15-100_AU43-33	1	1	1	3	6	test_extra	id-1270_AU14-66_AU15-100_AU43-33	emotion	Verdrietig	0.2277973223313225	2.5032131031948666
id-1362_AU13-100_AU20-33_AU43-33	1	1	1	3	7	test_extra	id-1362_AU13-100_AU20-33_AU43-33	emotion	Blij	0.29776595369179953	3.4950358317837527
id-1366_AU10Open-66_AU20-66	1	1	1	3	8	test_extra	id-1366_AU10Open-66_AU20-66	emotion	Walging	0.16587316849772066	1.3363472620621906
id-1302_AU2-33_AU43-66	1	1	1	3	9	test_extra	id-1302_AU2-33_AU43-66	emotion	Blij	0.10666498347979636	1.6864817840632895
id-1370_AU11-66_AU2-100_AU25-66_AU7-66	1	1	1	3	10	test_extra	id-1370_AU11-66_AU2-100_AU25-66_AU7-66	emotion	Walging	0.13824828674815307	3.1283662572386675
id-1356_AU12-33_AU15-66_AU16Open-66_AU6-33_AU9-100	1	1	1	3	11	test_extra	id-1356_AU12-33_AU15-66_AU16Open-66_AU6-33_AU9-100	emotion	Blij	0.2941266969113412	1.8197064090909407
id-1280_AU11-33_AU16Open-66_AU25-66_AU7-33	1	1	1	3	12	test_extra	id-1280_AU11-33_AU16Open-66_AU25-66_AU7-33	emotion	Bang	0.4215003575601825	2.3281437292043847
id-1289_AU10Open-66_AU15-66_AU43-100_AU7-100	1	1	1	3	13	test_extra	id-1289_AU10Open-66_AU15-66_AU43-100_AU7-100	emotion	Walging	0.4597010787148283	4.394988772475698
id-1342_AU14-33_AU20-33_AU43-100	1	1	1	3	14	test_extra	id-1342_AU14-33_AU20-33_AU43-100	emotion	Blij	0.4215601657978982	1.261447500801296
id-1270_AU15-33_AU22-66	1	1	1	3	15	test_extra	id-1270_AU15-33_AU22-66	emotion	Verdrietig	0.13409959066727273	2.511622501653619
id-1289_AU14-33_AU25-100_AU27i-66_AU7-33	1	1	1	3	16	test_extra	id-1289_AU14-33_AU25-100_AU27i-66_AU7-33	emotion	Verrassing	0.5602853703962515	1.9782168839374208
id-1360_AU24-66_AU26-33_AU5-100_AU7-33	1	1	1	3	17	test_extra	id-1360_AU24-66_AU26-33_AU5-100_AU7-33	emotion	Verrassing	0.6462619892582279	4.045060719787216
id-1293_AU22-66_AU25-100_AU5-33_AU9-33	1	1	1	3	18	test	id-1293_AU22-66_AU25-100_AU5-33_AU9-33	emotion	Boos	0.2303498563868505	3.4617668037808467
id-1323_AU10Open-100_AU2-33_AU20-66_AU4-66	1	1	1	3	19	test_extra	id-1323_AU10Open-100_AU2-33_AU20-66_AU4-66	emotion	Verdrietig	0.2984147539434263	4.261787088484199
id-1378_AU1-66_AU16Open-33_AU5-100	1	1	1	3	20	train	id-1378_AU1-66_AU16Open-33_AU5-100	emotion	Blij	0.5174985266743771	1.4030597906748878
id-1296_AU22-66_AU24-66_AU25-66_AU5-66_AU6-100	1	1	1	3	21	test_extra	id-1296_AU22-66_AU24-66_AU25-66_AU5-66_AU6-100	emotion	Walging	0.1710616850397424	1.6364984012216155
id-1291_AU20-33_AU24-100_AU25-33_AU27i-100	1	1	1	3	22	test	id-1291_AU20-33_AU24-100_AU25-33_AU27i-100	emotion	Bang	0.4665238930399752	1.41133244849334
id-1274_AU2-33_AU20-100_AU25-66_AU6-66	1	1	1	3	23	test_extra	id-1274_AU2-33_AU20-100_AU25-66_AU6-66	emotion	Boos	0.4894435856091947	1.1611411474332272
id-1344_AU17-33_AU6-33_AU7-33	1	1	1	3	24	train	id-1344_AU17-33_AU6-33_AU7-33	emotion	Blij	0.1893459590385792	4.278393378976034
id-1291_AU10Open-66_AU13-33_AU4-33_AU6-100	1	1	1	3	25	train	id-1291_AU10Open-66_AU13-33_AU4-33_AU6-100	emotion	Walging	0.29776595369179953	1.8614506401008841
id-1306_AU12-100_AU14-33_AU17-33_AU27i-33	1	1	1	3	26	test_extra	id-1306_AU12-100_AU14-33_AU17-33_AU27i-33	emotion	Verrassing	0.3892674863428232	1.469940754777781
id-1306_AU24-66_AU43-100_AU7-100	1	1	1	3	27	test	id-1306_AU24-66_AU43-100_AU7-100	emotion	Boos	0.4178146882896376	4.311827220200939
id-1293_AU24-33_AU27i-33_AU4-33	1	1	1	3	28	test_extra	id-1293_AU24-33_AU27i-33_AU4-33	emotion	Bang	0.5380512024931504	1.3364360076448063
id-1358_AU16Open-66_AU43-66	1	1	1	3	29	train	id-1358_AU16Open-66_AU43-66	emotion	Blij	0.19626625888133328	3.361707972100703
id-1380_AU10Open-33_AU13-33_AU16Open-100_AU22-33_AU43-66	1	1	1	3	30	test	id-1380_AU10Open-33_AU13-33_AU16Open-100_AU22-33_AU43-66	emotion	Blij	0.21851512326135225	2.278342969069854
id-1309_AU15-33	1	1	1	3	31	test	id-1309_AU15-33	emotion	Walging	0.08338972359287496	4.736979830906421
id-1270_AU11-33_AU17-66	1	1	1	3	32	test_extra	id-1270_AU11-33_AU17-66	emotion	Walging	0.12310444862459193	2.3447545475319203
id-1344_AU13-100_AU16Open-66_AU43-100	1	1	1	3	33	test_extra	id-1344_AU13-100_AU16Open-66_AU43-100	emotion	Blij	0.1453194348002352	6.062052781888268
id-1285_AU16Open-100	1	1	1	3	34	test_extra	id-1285_AU16Open-100	emotion	Bang	0.2374758481028847	2.6615952893607755
id-1367_AU25-66_AU4-66_AU6-33	1	1	1	3	35	test	id-1367_AU25-66_AU4-66_AU6-33	emotion	Verdrietig	0.499749135418234	1.3364471763070471
id-1294_AU12-100_AU24-66_AU27i-33	1	1	1	3	36	test_extra	id-1294_AU12-100_AU24-66_AU27i-33	emotion	Bang	0.5437333575183705	4.211636779427863
id-1370_AU13-33_AU25-33	1	1	1	4	1	train	id-1370_AU13-33_AU25-33	valence	0.5380544870483285		2.4189171771304245
id-1370_AU13-33_AU25-33	1	1	1	4	1	train	id-1370_AU13-33_AU25-33	arousal	0.5869685313254491		2.4189171771304245
id-1355_AU12-66_AU13-100_AU27i-100_AU5-100	1	1	1	4	2	train	id-1355_AU12-66_AU13-100_AU27i-100_AU5-100	valence	-0.6005557658468715		3.710778452694285
id-1355_AU12-66_AU13-100_AU27i-100_AU5-100	1	1	1	4	2	train	id-1355_AU12-66_AU13-100_AU27i-100_AU5-100	arousal	0.5679464029954577		3.710778452694285
id-1318_AU1-33_AU16Open-33_AU20-100_AU43-66	1	1	1	4	3	test_extra	id-1318_AU1-33_AU16Open-33_AU20-100_AU43-66	valence	-0.5679464029954577		2.010475298995516
id-1318_AU1-33_AU16Open-33_AU20-100_AU43-66	1	1	1	4	3	test_extra	id-1318_AU1-33_AU16Open-33_AU20-100_AU43-66	arousal	0.3831600135041127		2.010475298995516
id-1373_AU15-33_AU16Open-33_AU2-33_AU4-100	1	1	1	4	4	test_extra	id-1373_AU15-33_AU16Open-33_AU2-33_AU4-100	valence	-0.3722902258869748		2.3445326835790183
id-1373_AU15-33_AU16Open-33_AU2-33_AU4-100	1	1	1	4	4	test_extra	id-1373_AU15-33_AU16Open-33_AU2-33_AU4-100	arousal	-0.6793617260711217		2.3445326835790183
id-1342_AU1-100_AU14-100_AU15-66_AU5-100_AU7-100	1	1	1	4	5	test	id-1342_AU1-100_AU14-100_AU15-66_AU5-100_AU7-100	valence	0.50272767729263		1.1352292488536475
id-1342_AU1-100_AU14-100_AU15-66_AU5-100_AU7-100	1	1	1	4	5	test	id-1342_AU1-100_AU14-100_AU15-66_AU5-100_AU7-100	arousal	0.2907668187584401		1.1352292488536475
id-1323_AU14-66_AU24-100_AU25-66_AU5-100_AU6-66	1	1	1	4	6	test_extra	id-1323_AU14-66_AU24-100_AU25-66_AU5-100_AU6-66	valence	0.09239319474567256		1.4520893094468192
id-1323_AU14-66_AU24-100_AU25-66_AU5-100_AU6-66	1	1	1	4	6	test_extra	id-1323_AU14-66_AU24-100_AU25-66_AU5-100_AU6-66	arousal	0.17663404877849165		1.4520893094468192
id-1358_AU10Open-33_AU22-100_AU6-100	1	1	1	4	7	test_extra	id-1358_AU10Open-33_AU22-100_AU6-100	valence	-0.21196085853419		1.4103073464739282
id-1358_AU10Open-33_AU22-100_AU6-100	1	1	1	4	7	test_extra	id-1358_AU10Open-33_AU22-100_AU6-100	arousal	-0.3641378851741212		1.4103073464739282
id-1279_AU22-66_AU25-66_AU5-66	1	1	1	4	8	train	id-1279_AU22-66_AU25-66_AU5-66	valence	0.4538136330155093		1.0852491864243348
id-1279_AU22-66_AU25-66_AU5-66	1	1	1	4	8	train	id-1279_AU22-66_AU25-66_AU5-66	arousal	0.1032629823628105		1.0852491864243348
id-1293_AU14-33_AU15-33_AU43-66	1	1	1	4	9	train	id-1293_AU14-33_AU15-33_AU43-66	valence	0.2608749028113107		1.7021619812112476
id-1293_AU14-33_AU15-33_AU43-66	1	1	1	4	9	train	id-1293_AU14-33_AU15-33_AU43-66	arousal	0.33424596922699185		1.7021619812112476
id-1363_AU13-100_AU20-66_AU22-66_AU5-66	1	1	1	4	10	test_extra	id-1363_AU13-100_AU20-66_AU22-66_AU5-66	valence	0.11413276997994845		2.7688690764207418
id-1363_AU13-100_AU20-66_AU22-66_AU5-66	1	1	1	4	10	test_extra	id-1363_AU13-100_AU20-66_AU22-66_AU5-66	arousal	-0.7364281110610958		2.7688690764207418
id-1344_AU2-33_AU20-100_AU24-100	1	1	1	4	11	test	id-1344_AU2-33_AU20-100_AU24-100	valence	-0.41305192945124203		2.1687536467943573
id-1344_AU2-33_AU20-100_AU24-100	1	1	1	4	11	test	id-1344_AU2-33_AU20-100_AU24-100	arousal	-0.6440349163154233		2.1687536467943573
id-1297_AU20-33_AU22-33_AU26-66	1	1	1	4	12	test_extra	id-1297_AU20-33_AU22-33_AU26-66	valence	-0.6684919384539837		2.8024049448795267
id-1297_AU20-33_AU22-33_AU26-66	1	1	1	4	12	test_extra	id-1297_AU20-33_AU22-33_AU26-66	arousal	-0.6141430003682941		2.8024049448795267
id-1344_AU10Open-33_AU16Open-100	1	1	1	4	13	test_extra	id-1344_AU10Open-33_AU16Open-100	valence	-0.6005557658468715		1.3437285399450047
id-1344_AU10Open-33_AU16Open-100	1	1	1	4	13	test_extra	id-1344_AU10Open-33_AU16Open-100	arousal	0.5326195932397594		1.3437285399450047
id-1285_AU12-66_AU20-100	1	1	1	4	14	test_extra	id-1285_AU12-66_AU20-100	valence	0.1521770266399313		3.302323292908113
id-1285_AU12-66_AU20-100	1	1	1	4	14	test_extra	id-1285_AU12-66_AU20-100	arousal	0.07337106641568114		3.302323292908113
id-1279_AU1-100_AU13-66_AU22-100_AU27i-100	1	1	1	4	15	test_extra	id-1279_AU1-100_AU13-66_AU22-100_AU27i-100	valence	0.3587029913655523		3.8441250274318017
id-1279_AU1-100_AU13-66_AU22-100_AU27i-100	1	1	1	4	15	test_extra	id-1279_AU1-100_AU13-66_AU22-100_AU27i-100	arousal	0.3831600135041127		3.8441250274318017
id-1361_AU1-66_AU17-66_AU6-66_AU7-100	1	1	1	4	16	test_extra	id-1361_AU1-66_AU17-66_AU6-66_AU7-100	valence	0.01630468142570692		3.3690397456448413
id-1361_AU1-66_AU17-66_AU6-66_AU7-100	1	1	1	4	16	test_extra	id-1361_AU1-66_AU17-66_AU6-66_AU7-100	arousal	-0.3777251196955437		3.3690397456448413
id-1347_AU13-100_AU14-66_AU17-100_AU27i-66_AU7-100	1	1	1	4	17	test	id-1347_AU13-100_AU14-66_AU17-100_AU27i-66_AU7-100	valence	0.21196085853419		4.260769834712846
id-1347_AU13-100_AU14-66_AU17-100_AU27i-66_AU7-100	1	1	1	4	17	test	id-1347_AU13-100_AU14-66_AU17-100_AU27i-66_AU7-100	arousal	0.3451157568441299		4.260769834712846
id-1323_AU10Open-33_AU11-33	1	1	1	4	18	test_extra	id-1323_AU10Open-33_AU11-33	valence	-0.13315489830993985		2.3273957307337696
id-1323_AU10Open-33_AU11-33	1	1	1	4	18	test_extra	id-1323_AU10Open-33_AU11-33	arousal	-0.19293873020419855		2.3273957307337696
id-1297_AU14-66_AU25-100	1	1	1	4	19	train	id-1297_AU14-66_AU25-100	valence	0.19837362401276756		3.2772931148829234
id-1297_AU14-66_AU25-100	1	1	1	4	19	train	id-1297_AU14-66_AU25-100	arousal	0.5625115091868887		3.2772931148829234
id-1269_AU10Open-66_AU20-66_AU26-66_AU43-66	1	1	1	4	20	test	id-1269_AU10Open-66_AU20-66_AU26-66_AU43-66	valence	-0.3695727789826902		7.103191188471103
id-1269_AU10Open-66_AU20-66_AU26-66_AU43-66	1	1	1	4	20	test	id-1269_AU10Open-66_AU20-66_AU26-66_AU43-66	arousal	-0.3532680975569833		7.103191188471103
id-1342_AU22-33	1	1	1	4	21	test_extra	id-1342_AU22-33	valence	0.0027174469042844872		1.143755163619062
id-1342_AU22-33	1	1	1	4	21	test_extra	id-1342_AU22-33	arousal	0.0		1.143755163619062
id-1344_AU12-66_AU22-66_AU26-100_AU27i-33	1	1	1	4	22	train	id-1344_AU12-66_AU22-66_AU26-100_AU27i-33	valence	-0.3451157568441299		3.4612240671976906
id-1344_AU12-66_AU22-66_AU26-100_AU27i-33	1	1	1	4	22	train	id-1344_AU12-66_AU22-66_AU26-100_AU27i-33	arousal	0.32337618160985393		3.4612240671976906
id-1378_AU14-100_AU22-33_AU4-33	1	1	1	4	23	test_extra	id-1378_AU14-100_AU22-33_AU4-33	valence	0.4674008675369317		1.3020799971982342
id-1378_AU14-100_AU22-33_AU4-33	1	1	1	4	23	test_extra	id-1378_AU14-100_AU22-33_AU4-33	arousal	0.5271846994311905		1.3020799971982342
id-1279_AU12-100_AU15-100_AU26-100	1	1	1	4	24	test_extra	id-1279_AU12-100_AU15-100_AU26-100	valence	-0.4728357613455008		3.8857388567685116
id-1279_AU12-100_AU15-100_AU26-100	1	1	1	4	24	test_extra	id-1279_AU12-100_AU15-100_AU26-100	arousal	0.3315285223227074		3.8857388567685116
id-1264_AU22-100_AU24-66_AU25-100_AU9-100	1	1	1	4	25	train	id-1264_AU22-100_AU24-66_AU25-100_AU9-100	valence	-0.4293566108769489		2.8855532155030232
id-1264_AU22-100_AU24-66_AU25-100_AU9-100	1	1	1	4	25	train	id-1264_AU22-100_AU24-66_AU25-100_AU9-100	arousal	0.1440246859270778		2.8855532155030232
id-1293_AU2-66_AU22-33_AU26-66_AU9-66	1	1	1	4	26	test_extra	id-1293_AU2-66_AU22-33_AU26-66_AU9-66	valence	-0.3913123542169661		4.019446752801741
id-1293_AU2-66_AU22-33_AU26-66_AU9-66	1	1	1	4	26	test_extra	id-1293_AU2-66_AU22-33_AU26-66_AU9-66	arousal	-0.4429438453983714		4.019446752801741
id-1266_AU17-100_AU20-66	1	1	1	4	27	train	id-1266_AU17-100_AU20-66	valence	-0.4891404427712077		1.1686298859494857
id-1266_AU17-100_AU20-66	1	1	1	4	27	train	id-1266_AU17-100_AU20-66	arousal	0.4674008675369317		1.1686298859494857
id-1309_AU27i-33_AU4-100_AU43-66	1	1	1	4	28	test_extra	id-1309_AU27i-33_AU4-100_AU43-66	valence	-0.625012787985432		2.4938951190233642
id-1309_AU27i-33_AU4-100_AU43-66	1	1	1	4	28	test_extra	id-1309_AU27i-33_AU4-100_AU43-66	arousal	0.5625115091868887		2.4938951190233642
id-1294_AU11-66_AU20-33_AU25-33	1	1	1	4	29	test	id-1294_AU11-66_AU20-33_AU25-33	valence	0.28261447804558665		3.0356431232285104
id-1294_AU11-66_AU20-33_AU25-33	1	1	1	4	29	test	id-1294_AU11-66_AU20-33_AU25-33	arousal	-0.5299021463354749		3.0356431232285104
id-1269_AU13-33_AU15-100	1	1	1	4	30	train	id-1269_AU13-33_AU15-100	valence	0.0815234071285346		2.210732117840962
id-1269_AU13-33_AU15-100	1	1	1	4	30	train	id-1269_AU13-33_AU15-100	arousal	0.4837055489626387		2.210732117840962
id-1279_AU10Open-100_AU24-33	1	1	1	4	31	test_extra	id-1279_AU10Open-100_AU24-33	valence	0.15489447354421576		3.62735941749088
id-1279_AU10Open-100_AU24-33	1	1	1	4	31	test_extra	id-1279_AU10Open-100_AU24-33	arousal	0.3260936285141384		3.62735941749088
id-1355_AU13-66_AU14-100_AU15-100_AU7-33	1	1	1	4	32	test	id-1355_AU13-66_AU14-100_AU15-100_AU7-33	valence	0.1684817080656382		1.527179843524209
id-1355_AU13-66_AU14-100_AU15-100_AU7-33	1	1	1	4	32	test	id-1355_AU13-66_AU14-100_AU15-100_AU7-33	arousal	-0.33968086303556083		1.527179843524209
id-1280_AU1-66_AU17-100_AU26-33	1	1	1	4	33	train	id-1280_AU1-66_AU17-100_AU26-33	valence	-0.07880596022425011		4.319213025919453
id-1280_AU1-66_AU17-100_AU26-33	1	1	1	4	33	train	id-1280_AU1-66_AU17-100_AU26-33	arousal	0.3831600135041127		4.319213025919453
id-1285_AU16Open-33_AU5-33	1	1	1	4	34	test	id-1285_AU16Open-33_AU5-33	valence	-0.07880596022425011		2.385633961906933
id-1285_AU16Open-33_AU5-33	1	1	1	4	34	test	id-1285_AU16Open-33_AU5-33	arousal	-0.5434893808568974		2.385633961906933
id-1264_AU10Open-33_AU12-66	1	1	1	4	35	test_extra	id-1264_AU10Open-33_AU12-66	valence	-0.4891404427712077		1.860500096443502
id-1264_AU10Open-33_AU12-66	1	1	1	4	35	test_extra	id-1264_AU10Open-33_AU12-66	arousal	-0.09239319474567256		1.860500096443502
id-1380_AU12-66_AU4-33	1	1	1	4	36	train	id-1380_AU12-66_AU4-33	valence	0.1711991549699227		3.294071463134969
id-1380_AU12-66_AU4-33	1	1	1	4	36	train	id-1380_AU12-66_AU4-33	arousal	0.20652596472562101		3.294071463134969
id-1270_AU1-100_AU11-33_AU24-33_AU6-33	1	1	2	5	1	train	id-1270_AU1-100_AU11-33_AU24-33_AU6-33	emotion	Boos	0.2401529745030696	2.8115052910779923
id-1373_AU12-66_AU15-66_AU16Open-33	1	1	2	5	2	test_extra	id-1373_AU12-66_AU15-66_AU16Open-33	emotion	Verrassing	0.3680811157417457	1.7448966008323623
id-1360_AU1-33_AU15-33_AU26-33	1	1	2	5	3	test_extra	id-1360_AU1-33_AU15-33_AU26-33	emotion	Walging	0.2112444035739104	2.3199667596472864
id-1358_AU1-33_AU4-33_AU9-33	1	1	2	5	4	train	id-1358_AU1-33_AU4-33_AU9-33	emotion	Verdrietig	0.2248175870204384	3.8367283549068816
id-1310_AU14-100_AU43-100_AU9-33	1	1	2	5	5	test_extra	id-1310_AU14-100_AU43-100_AU9-33	emotion	Verdrietig	0.4770324625064994	1.6031228181491315
id-1302_AU1-33_AU22-100	1	1	2	5	6	test_extra	id-1302_AU1-33_AU22-100	emotion	Verrassing	0.22381499904656127	1.119773934215118
id-1260_AU12-66_AU25-33	1	1	2	5	7	test	id-1260_AU12-66_AU25-33	emotion	Geen van allen	0.0	4.778428243311282
id-1377_AU17-66_AU24-33_AU4-100	1	1	2	5	8	test	id-1377_AU17-66_AU24-33_AU4-100	emotion	Verdrietig	0.5749659775219289	1.94482711364617
id-1377_AU10Open-100_AU22-66_AU4-66_AU5-100_AU7-100	1	1	2	5	9	test_extra	id-1377_AU10Open-100_AU22-66_AU4-66_AU5-100_AU7-100	emotion	Walging	0.29100783167805905	3.828315334179933
id-1370_AU10Open-100_AU12-100_AU24-66	1	1	2	5	10	train	id-1370_AU10Open-100_AU12-100_AU24-66	emotion	Blij	0.4378743418792793	1.2363596683335345
id-1294_AU10Open-66_AU27i-66_AU43-33_AU7-66	1	1	2	5	11	train	id-1294_AU10Open-66_AU27i-66_AU43-33_AU7-66	emotion	Verrassing	0.35878077462664865	2.9199674841020173
id-1376_AU14-33_AU17-33_AU2-100_AU27i-33_AU43-66	1	1	2	5	12	test_extra	id-1376_AU14-33_AU17-33_AU2-100_AU27i-33_AU43-66	emotion	Verrassing	0.3979235753021639	2.653197059564264
id-1380_AU25-33_AU4-66_AU5-100	1	1	2	5	13	train	id-1380_AU25-33_AU4-66_AU5-100	emotion	Boos	0.24320514915950955	3.9867479302502034
id-1315_AU27i-66	1	1	2	5	14	train	id-1315_AU27i-66	emotion	Verrassing	0.6741051891141655	2.3616901626119216
id-1293_AU15-33_AU17-100_AU27i-33_AU7-100	1	1	2	5	15	test_extra	id-1293_AU15-33_AU17-100_AU27i-33_AU7-100	emotion	Verrassing	0.6211202326804036	1.5698670717974892
id-1344_AU13-100_AU17-100_AU9-66	1	1	2	5	16	train	id-1344_AU13-100_AU17-100_AU9-66	emotion	Walging	0.5888961124775465	3.837200457252038
id-1270_AU10Open-66_AU12-33_AU14-33	1	1	2	5	17	test_extra	id-1270_AU10Open-66_AU12-33_AU14-33	emotion	Blij	0.2814761781847695	2.519887009368176
id-1306_AU16Open-66_AU2-33_AU5-33_AU6-100	1	1	2	5	18	train	id-1306_AU16Open-66_AU2-33_AU5-33_AU6-100	emotion	Walging	0.39035121488627	4.478501684807268
id-1360_AU1-100_AU11-66	1	1	2	5	19	test	id-1360_AU1-100_AU11-66	emotion	Walging	0.1414454929163215	4.386800030548328
id-1264_AU22-100_AU26-33	1	1	2	5	20	test_extra	id-1264_AU22-100_AU26-33	emotion	Verrassing	0.5479020308406212	1.4614752111556295
id-1342_AU12-100_AU20-100_AU6-66	1	1	2	5	21	train	id-1342_AU12-100_AU20-100_AU6-66	emotion	Boos	0.3908291909591672	1.244735560807385
id-1373_AU22-66_AU4-100	1	1	2	5	22	test_extra	id-1373_AU22-66_AU4-100	emotion	Verdrietig	0.3848748334371474	1.6447432883142028
id-1311_AU16Open-100_AU43-100_AU6-66_AU9-100	1	1	2	5	23	test	id-1311_AU16Open-100_AU43-100_AU6-66_AU9-100	emotion	Walging	0.34195546668655336	2.2281609651654435
id-1376_AU13-66_AU22-100_AU27i-33_AU6-33	1	1	2	5	24	test_extra	id-1376_AU13-66_AU22-100_AU27i-33_AU6-33	emotion	Verrassing	0.4784829924231238	1.1613255812753778
id-1291_AU4-100_AU43-33_AU7-66	1	1	2	5	25	test	id-1291_AU4-100_AU43-33_AU7-66	emotion	Boos	0.09509406978954528	0.7863471262280655
id-1269_AU15-66_AU17-33_AU24-100	1	1	2	5	26	test_extra	id-1269_AU15-66_AU17-33_AU24-100	emotion	Walging	0.3424986186141996	1.5697753076583467
id-1373_AU1-66	1	1	2	5	27	train	id-1373_AU1-66	emotion	Verdrietig	0.15138170096279674	1.7282718971418944
id-1315_AU12-66_AU17-33_AU2-100_AU4-100	1	1	2	5	28	test	id-1315_AU12-66_AU17-33_AU2-100_AU4-100	emotion	Bang	0.34140184267961665	4.5950765521192825
id-1273_AU12-100_AU16Open-100_AU5-66	1	1	2	5	29	test_extra	id-1273_AU12-100_AU16Open-100_AU5-66	emotion	Blij	0.4205939454872401	1.4781107816525036
id-1323_AU22-66_AU7-100	1	1	2	5	30	test_extra	id-1323_AU22-66_AU7-100	emotion	Verrassing	0.22070086467073333	1.953168896425268
id-1264_AU14-66_AU15-66_AU20-66_AU6-33	1	1	2	5	31	test_extra	id-1264_AU14-66_AU15-66_AU20-66_AU6-33	emotion	Walging	0.4027982341920908	0.8363794096967467
id-1291_AU15-100_AU22-66	1	1	2	5	32	train	id-1291_AU15-100_AU22-66	emotion	Walging	0.08064132357487612	2.1946012501048244
id-1345_AU17-66_AU25-66_AU6-100	1	1	2	5	33	test	id-1345_AU17-66_AU25-66_AU6-100	emotion	Verdrietig	0.15234412350272342	3.5700735411082865
id-1294_AU16Open-100_AU20-33_AU43-33	1	1	2	5	34	train	id-1294_AU16Open-100_AU20-33_AU43-33	emotion	Blij	0.19826856739645016	3.0198947066892288
id-1260_AU13-33_AU4-66	1	1	2	5	35	test_extra	id-1260_AU13-33_AU4-66	emotion	Verdrietig	0.2956836747772254	1.50306217533398
id-1342_AU17-100_AU2-100_AU20-33_AU26-33	1	1	2	5	36	test_extra	id-1342_AU17-100_AU2-100_AU20-33_AU26-33	emotion	Verrassing	0.4447516737784458	1.5781856116846031
id-1264_AU1-100_AU4-100	1	1	2	6	1	test_extra	id-1264_AU1-100_AU4-100	valence	0.29348426566272456		3.2023360010334727
id-1264_AU1-100_AU4-100	1	1	2	6	1	test_extra	id-1264_AU1-100_AU4-100	arousal	0.5407719339526129		3.2023360010334727
id-1370_AU10Open-100_AU2-33_AU27i-66_AU5-66	1	1	2	6	2	test	id-1370_AU10Open-100_AU2-33_AU27i-66_AU5-66	valence	-0.3994646949298196		1.377114084256391
id-1370_AU10Open-100_AU2-33_AU27i-66_AU5-66	1	1	2	6	2	test	id-1370_AU10Open-100_AU2-33_AU27i-66_AU5-66	arousal	0.5679464029954577		1.377114084256391
id-1339_AU10Open-100_AU12-33_AU20-100_AU27i-33	1	1	2	6	3	test	id-1339_AU10Open-100_AU12-33_AU20-100_AU27i-33	valence	-0.5625115091868887		3.9035815482839102
id-1339_AU10Open-100_AU12-33_AU20-100_AU27i-33	1	1	2	6	3	test	id-1339_AU10Open-100_AU12-33_AU20-100_AU27i-33	arousal	0.1440246859270778		3.9035815482839102
id-1373_AU1-33_AU26-100_AU27i-66_AU7-66	1	1	2	6	4	test_extra	id-1373_AU1-33_AU26-100_AU27i-66_AU7-66	valence	-0.5271846994311905		3.2938683142347145
id-1373_AU1-33_AU26-100_AU27i-66_AU7-66	1	1	2	6	4	test_extra	id-1373_AU1-33_AU26-100_AU27i-66_AU7-66	arousal	-0.5434893808568974		3.2938683142347145
id-1307_AU10Open-66_AU17-33_AU22-33_AU9-100	1	1	2	6	5	test	id-1307_AU10Open-66_AU17-33_AU22-33_AU9-100	valence	-0.5516417215697509		3.1606971176697702
id-1307_AU10Open-66_AU17-33_AU22-33_AU9-100	1	1	2	6	5	test	id-1307_AU10Open-66_AU17-33_AU22-33_AU9-100	arousal	-0.42392171706838		3.1606971176697702
id-1273_AU12-100_AU16Open-33_AU20-100_AU22-66_AU5-66	1	1	2	6	6	test	id-1273_AU12-100_AU16Open-33_AU20-100_AU22-66_AU5-66	valence	0.4402263984940868		0.976996783123468
id-1273_AU12-100_AU16Open-33_AU20-100_AU22-66_AU5-66	1	1	2	6	6	test	id-1273_AU12-100_AU16Open-33_AU20-100_AU22-66_AU5-66	arousal	-0.4918578896754921		0.976996783123468
id-1285_AU11-66_AU4-33	1	1	2	6	7	train	id-1285_AU11-66_AU4-33	valence	0.03260936285141384		4.004016794044219
id-1285_AU11-66_AU4-33	1	1	2	6	7	train	id-1285_AU11-66_AU4-33	arousal	0.12228511069280193		4.004016794044219
id-1378_AU14-66_AU2-66_AU5-33_AU7-66	1	1	2	6	8	test_extra	id-1378_AU14-66_AU2-66_AU5-33_AU7-66	valence	0.8152340712853461		1.7354530446827994
id-1378_AU14-66_AU2-66_AU5-33_AU7-66	1	1	2	6	8	test_extra	id-1378_AU14-66_AU2-66_AU5-33_AU7-66	arousal	0.26359234971559525		1.7354530446827994
id-1296_AU13-66_AU14-100_AU17-66	1	1	2	6	9	test_extra	id-1296_AU13-66_AU14-100_AU17-66	valence	0.3451157568441299		1.6855327496850805
id-1296_AU13-66_AU14-100_AU17-66	1	1	2	6	9	test_extra	id-1296_AU13-66_AU14-100_AU17-66	arousal	0.07065361951139666		1.6855327496850805
id-1345_AU12-33_AU27i-66_AU7-100_AU9-66	1	1	2	6	10	train	id-1345_AU12-33_AU27i-66_AU7-100_AU9-66	valence	-0.36685533207840576		3.9441998574638997
id-1345_AU12-33_AU27i-66_AU7-100_AU9-66	1	1	2	6	10	train	id-1345_AU12-33_AU27i-66_AU7-100_AU9-66	arousal	-0.4375089515898024		3.9441998574638997
id-1376_AU10Open-100_AU11-66_AU25-33_AU27i-66_AU9-100	1	1	2	6	11	test_extra	id-1376_AU10Open-100_AU11-66_AU25-33_AU27i-66_AU9-100	valence	-0.4483787392069404		1.5939270855451468
id-1376_AU10Open-100_AU11-66_AU25-33_AU27i-66_AU9-100	1	1	2	6	11	test_extra	id-1376_AU10Open-100_AU11-66_AU25-33_AU27i-66_AU9-100	arousal	0.4592485268240783		1.5939270855451468
id-1339_AU1-66_AU25-66_AU43-100	1	1	2	6	12	train	id-1339_AU1-66_AU25-66_AU43-100	valence	0.3532680975569833		3.44395490154966
id-1339_AU1-66_AU25-66_AU43-100	1	1	2	6	12	train	id-1339_AU1-66_AU25-66_AU43-100	arousal	0.2364178806727504		3.44395490154966
id-1370_AU20-33_AU26-100	1	1	2	6	13	test_extra	id-1370_AU20-33_AU26-100	valence	-0.010869787617137949		3.919151869949928
id-1370_AU20-33_AU26-100	1	1	2	6	13	test_extra	id-1370_AU20-33_AU26-100	arousal	-0.5597940622826043		3.919151869949928
id-1339_AU14-100_AU15-66_AU26-33	1	1	2	6	14	train	id-1339_AU14-100_AU15-66_AU26-33	valence	-0.24457022138560386		5.144350121241587
id-1339_AU14-100_AU15-66_AU26-33	1	1	2	6	14	train	id-1339_AU14-100_AU15-66_AU26-33	arousal	-0.7337106641568115		5.144350121241587
id-1339_AU11-100_AU15-66_AU43-33	1	1	2	6	15	test_extra	id-1339_AU11-100_AU15-66_AU43-33	valence	-0.4619659737283627		2.9107234545826937
id-1339_AU11-100_AU15-66_AU43-33	1	1	2	6	15	test_extra	id-1339_AU11-100_AU15-66_AU43-33	arousal	0.1847863894913451		2.9107234545826937
id-1296_AU22-33_AU24-100_AU7-33_AU9-100	1	1	2	6	16	test_extra	id-1296_AU22-33_AU24-100_AU7-33_AU9-100	valence	0.13858979211850886		1.2436814806387702
id-1296_AU22-33_AU24-100_AU7-33_AU9-100	1	1	2	6	16	test_extra	id-1296_AU22-33_AU24-100_AU7-33_AU9-100	arousal	0.14130723902279332		1.2436814806387702
id-1360_AU11-100_AU16Open-66_AU22-100_AU25-66_AU26-33	1	1	2	6	17	test_extra	id-1360_AU11-100_AU16Open-66_AU22-100_AU25-66_AU26-33	valence	-0.5489242746654663		2.0104028536225087
id-1360_AU11-100_AU16Open-66_AU22-100_AU25-66_AU26-33	1	1	2	6	17	test_extra	id-1360_AU11-100_AU16Open-66_AU22-100_AU25-66_AU26-33	arousal	0.21739575234275896		2.0104028536225087
id-1289_AU1-100_AU12-100_AU13-100_AU17-33	1	1	2	6	18	test_extra	id-1289_AU1-100_AU12-100_AU13-100_AU17-33	valence	0.6168604472725784		2.6938349893644045
id-1289_AU1-100_AU12-100_AU13-100_AU17-33	1	1	2	6	18	test_extra	id-1289_AU1-100_AU12-100_AU13-100_AU17-33	arousal	0.4701183144412162		2.6938349893644045
id-1339_AU17-100_AU2-33_AU22-33_AU25-33	1	1	2	6	19	train	id-1339_AU17-100_AU2-33_AU22-33_AU25-33	valence	0.42120427016409545		1.8603920320965701
id-1339_AU17-100_AU2-33_AU22-33_AU25-33	1	1	2	6	19	train	id-1339_AU17-100_AU2-33_AU22-33_AU25-33	arousal	-0.7690374739125099		1.8603920320965701
id-1360_AU12-100_AU43-66_AU7-33	1	1	2	6	20	test_extra	id-1360_AU12-100_AU43-66_AU7-33	valence	0.7445804517739495		3.0189637836519982
id-1360_AU12-100_AU43-66_AU7-33	1	1	2	6	20	test_extra	id-1360_AU12-100_AU43-66_AU7-33	arousal	-0.8261038589024841		3.0189637836519982
id-1360_AU1-100_AU13-66_AU27i-100_AU4-33_AU9-100	1	1	2	6	21	test_extra	id-1360_AU1-100_AU13-66_AU27i-100_AU4-33_AU9-100	valence	-0.7364281110610958		2.402219122499446
id-1360_AU1-100_AU13-66_AU27i-100_AU4-33_AU9-100	1	1	2	6	21	test_extra	id-1360_AU1-100_AU13-66_AU27i-100_AU4-33_AU9-100	arousal	-0.29348426566272456		2.402219122499446
id-1345_AU17-100_AU20-33	1	1	2	6	22	test_extra	id-1345_AU17-100_AU20-33	valence	-0.14130723902279332		1.6355430278727001
id-1345_AU17-100_AU20-33	1	1	2	6	22	test_extra	id-1345_AU17-100_AU20-33	arousal	-0.08967574784138807		1.6355430278727001
id-1310_AU2-66	1	1	2	6	23	test_extra	id-1310_AU2-66	valence	0.4266391639726645		2.5772097121480333
id-1310_AU2-66	1	1	2	6	23	test_extra	id-1310_AU2-66	arousal	0.1684817080656382		2.5772097121480333
id-1296_AU16Open-100_AU17-100_AU27i-33	1	1	2	6	24	train	id-1296_AU16Open-100_AU17-100_AU27i-33	valence	-0.4728357613455008		3.827319814019575
id-1296_AU16Open-100_AU17-100_AU27i-33	1	1	2	6	24	train	id-1296_AU16Open-100_AU17-100_AU27i-33	arousal	0.1440246859270778		3.827319814019575
id-1354_AU10Open-100_AU17-100_AU27i-33_AU4-33	1	1	2	6	25	test_extra	id-1354_AU10Open-100_AU17-100_AU27i-33_AU4-33	valence	-0.5625115091868887		2.327150020179033
id-1354_AU10Open-100_AU17-100_AU27i-33_AU4-33	1	1	2	6	25	test_extra	id-1354_AU10Open-100_AU17-100_AU27i-33_AU4-33	arousal	-0.5543591684740353		2.327150020179033
id-1361_AU10Open-33_AU11-100_AU13-66_AU2-100	1	1	2	6	26	train	id-1361_AU10Open-33_AU11-100_AU13-66_AU2-100	valence	-0.5570766153783199		1.4687997401633766
id-1361_AU10Open-33_AU11-100_AU13-66_AU2-100	1	1	2	6	26	train	id-1361_AU10Open-33_AU11-100_AU13-66_AU2-100	arousal	0.2418527744813193		1.4687997401633766
id-1290_AU20-100_AU43-100	1	1	2	6	27	test_extra	id-1290_AU20-100_AU43-100	valence	0.2663097966198797		1.6187939596256908
id-1290_AU20-100_AU43-100	1	1	2	6	27	test_extra	id-1290_AU20-100_AU43-100	arousal	0.1711991549699227		1.6187939596256908
id-1354_AU16Open-66_AU27i-33_AU5-100	1	1	2	6	28	test_extra	id-1354_AU16Open-66_AU27i-33_AU5-100	valence	0.2201131992470434		5.219280973640707
id-1354_AU16Open-66_AU27i-33_AU5-100	1	1	2	6	28	test_extra	id-1354_AU16Open-66_AU27i-33_AU5-100	arousal	-0.6793617260711217		5.219280973640707
id-1310_AU1-100_AU24-100_AU5-33	1	1	2	6	29	test_extra	id-1310_AU1-100_AU24-100_AU5-33	valence	-0.01902212832999141		1.4021095488733408
id-1310_AU1-100_AU24-100_AU5-33	1	1	2	6	29	test_extra	id-1310_AU1-100_AU24-100_AU5-33	arousal	0.38044256659982817		1.4021095488733408
id-1377_AU10Open-33_AU13-33_AU24-100_AU6-66	1	1	2	6	30	test_extra	id-1377_AU10Open-33_AU13-33_AU24-100_AU6-66	valence	0.13043745140565535		4.160714927158551
id-1377_AU10Open-33_AU13-33_AU24-100_AU6-66	1	1	2	6	30	test_extra	id-1377_AU10Open-33_AU13-33_AU24-100_AU6-66	arousal	0.6630570446454148		4.160714927158551
id-1280_AU11-33_AU17-66_AU2-66_AU26-66_AU9-66	1	1	2	6	31	test	id-1280_AU11-33_AU17-66_AU2-66_AU26-66_AU9-66	valence	-0.5434893808568974		2.8438602999649447
id-1280_AU11-33_AU17-66_AU2-66_AU26-66_AU9-66	1	1	2	6	31	test	id-1280_AU11-33_AU17-66_AU2-66_AU26-66_AU9-66	arousal	-0.4157693763555265		2.8438602999649447
id-1289_AU17-33_AU26-66	1	1	2	6	32	test	id-1289_AU17-33_AU26-66	valence	0.3967472480255351		2.985631064091649
id-1289_AU17-33_AU26-66	1	1	2	6	32	test	id-1289_AU17-33_AU26-66	arousal	-0.6956664074968286		2.985631064091649
id-1344_AU1-33_AU10Open-100	1	1	2	6	33	test_extra	id-1344_AU1-33_AU10Open-100	valence	0.02717446904284487		1.5104561311582074
id-1344_AU1-33_AU10Open-100	1	1	2	6	33	test_extra	id-1344_AU1-33_AU10Open-100	arousal	0.2608749028113107		1.5104561311582074
id-1362_AU5-33_AU6-66_AU7-33	1	1	2	6	34	test	id-1362_AU5-33_AU6-66_AU7-33	valence	0.04891404427712077		1.1936036169554427
id-1362_AU5-33_AU6-66_AU7-33	1	1	2	6	34	test	id-1362_AU5-33_AU6-66_AU7-33	arousal	0.11956766378851742		1.1936036169554427
id-1354_AU6-100	1	1	2	6	35	train	id-1354_AU6-100	valence	0.11413276997994845		2.9272669590845912
id-1354_AU6-100	1	1	2	6	35	train	id-1354_AU6-100	arousal	0.3451157568441299		2.9272669590845912
id-1339_AU11-100_AU20-100_AU4-33	1	1	2	6	36	test_extra	id-1339_AU11-100_AU20-100_AU4-33	valence	0.2717446904284487		1.5856610685495982
id-1339_AU11-100_AU20-100_AU4-33	1	1	2	6	36	test_extra	id-1339_AU11-100_AU20-100_AU4-33	arousal	0.2907668187584401		1.5856610685495982
id-1289_AU14-33_AU25-100_AU27i-66_AU7-33	1	1	2	7	1	test_extra	id-1289_AU14-33_AU25-100_AU27i-66_AU7-33	valence	-0.5380544870483285		3.1193317155866684
id-1289_AU14-33_AU25-100_AU27i-66_AU7-33	1	1	2	7	1	test_extra	id-1289_AU14-33_AU25-100_AU27i-66_AU7-33	arousal	0.4293566108769489		3.1193317155866684
id-1344_AU16Open-33	1	1	2	7	2	train	id-1344_AU16Open-33	valence	0.0		1.1437587858872575
id-1344_AU16Open-33	1	1	2	7	2	train	id-1344_AU16Open-33	arousal	0.0		1.1437587858872575
id-1294_AU12-100_AU24-66_AU27i-33	1	1	2	7	3	test_extra	id-1294_AU12-100_AU24-66_AU27i-33	valence	-0.6168604472725784		1.0520791670951442
id-1294_AU12-100_AU24-66_AU27i-33	1	1	2	7	3	test_extra	id-1294_AU12-100_AU24-66_AU27i-33	arousal	0.6141430003682941		1.0520791670951442
id-1293_AU22-66_AU25-100_AU5-33_AU9-33	1	1	2	7	4	test	id-1293_AU22-66_AU25-100_AU5-33_AU9-33	valence	-0.5652289560911733		3.8607322234893218
id-1293_AU22-66_AU25-100_AU5-33_AU9-33	1	1	2	7	4	test	id-1293_AU22-66_AU25-100_AU5-33_AU9-33	arousal	-0.42120427016409545		3.8607322234893218
id-1280_AU11-33_AU16Open-66_AU25-66_AU7-33	1	1	2	7	5	test_extra	id-1280_AU11-33_AU16Open-66_AU25-66_AU7-33	valence	-0.524467252526906		4.8692140673210815
id-1280_AU11-33_AU16Open-66_AU25-66_AU7-33	1	1	2	7	5	test_extra	id-1280_AU11-33_AU16Open-66_AU25-66_AU7-33	arousal	0.2744621373327332		4.8692140673210815
id-1306_AU24-66_AU43-100_AU7-100	1	1	2	7	6	test	id-1306_AU24-66_AU43-100_AU7-100	valence	0.7934944960510701		1.3353873608793947
id-1306_AU24-66_AU43-100_AU7-100	1	1	2	7	6	test	id-1306_AU24-66_AU43-100_AU7-100	arousal	-0.7717549208167943		1.3353873608793947
id-1274_AU10Open-66_AU2-33_AU43-100_AU9-66	1	1	2	7	7	test	id-1274_AU10Open-66_AU2-33_AU43-100_AU9-66	valence	-0.28261447804558665		2.4355400696858847
id-1274_AU10Open-66_AU2-33_AU43-100_AU9-66	1	1	2	7	7	test	id-1274_AU10Open-66_AU2-33_AU43-100_AU9-66	arousal	-0.7011013013053977		2.4355400696858847
id-1270_AU11-33_AU17-66	1	1	2	7	8	test_extra	id-1270_AU11-33_AU17-66	valence	0.3288110754184229		2.677270354961365
id-1270_AU11-33_AU17-66	1	1	2	7	8	test_extra	id-1270_AU11-33_AU17-66	arousal	0.4918578896754921		2.677270354961365
id-1285_AU16Open-100	1	1	2	7	9	test_extra	id-1285_AU16Open-100	valence	-0.12228511069280193		5.86099574353284
id-1285_AU16Open-100	1	1	2	7	9	test_extra	id-1285_AU16Open-100	arousal	-0.8070817305724926		5.86099574353284
id-1309_AU15-33	1	1	2	7	10	test	id-1309_AU15-33	valence	-0.05978383189425871		2.102127750773434
id-1309_AU15-33	1	1	2	7	10	test	id-1309_AU15-33	arousal	-0.8994749253181652		2.102127750773434
id-1291_AU20-33_AU24-100_AU25-33_AU27i-100	1	1	2	7	11	test	id-1291_AU20-33_AU24-100_AU25-33_AU27i-100	valence	-0.4945753365797766		2.7106000559633685
id-1291_AU20-33_AU24-100_AU25-33_AU27i-100	1	1	2	7	11	test	id-1291_AU20-33_AU24-100_AU25-33_AU27i-100	arousal	-0.6358825756025699		2.7106000559633685
id-1358_AU16Open-66_AU43-66	1	1	2	7	12	train	id-1358_AU16Open-66_AU43-66	valence	0.11413276997994845		1.4354582667874638
id-1358_AU16Open-66_AU43-66	1	1	2	7	12	train	id-1358_AU16Open-66_AU43-66	arousal	0.19293873020419855		1.4354582667874638
id-1378_AU1-66_AU16Open-33_AU5-100	1	1	2	7	13	train	id-1378_AU1-66_AU16Open-33_AU5-100	valence	0.6032732127511561		1.268802215379765
id-1378_AU1-66_AU16Open-33_AU5-100	1	1	2	7	13	train	id-1378_AU1-66_AU16Open-33_AU5-100	arousal	0.7826247084339323		1.268802215379765
id-1291_AU10Open-66_AU15-33_AU20-100_AU4-100	1	1	2	7	14	test_extra	id-1291_AU10Open-66_AU15-33_AU20-100_AU4-100	valence	-0.5951208720383027		1.818751035742025
id-1291_AU10Open-66_AU15-33_AU20-100_AU4-100	1	1	2	7	14	test_extra	id-1291_AU10Open-66_AU15-33_AU20-100_AU4-100	arousal	0.6304476817940009		1.818751035742025
id-1274_AU2-33_AU20-100_AU25-66_AU6-66	1	1	2	7	15	test_extra	id-1274_AU2-33_AU20-100_AU25-66_AU6-66	valence	-0.5407719339526129		1.88544575486776
id-1274_AU2-33_AU20-100_AU25-66_AU6-66	1	1	2	7	15	test_extra	id-1274_AU2-33_AU20-100_AU25-66_AU6-66	arousal	0.5516417215697509		1.88544575486776
id-1366_AU10Open-66_AU20-66	1	1	2	7	16	test_extra	id-1366_AU10Open-66_AU20-66	valence	-0.6222953410811475		5.977783117268701
id-1366_AU10Open-66_AU20-66	1	1	2	7	16	test_extra	id-1366_AU10Open-66_AU20-66	arousal	0.105980429267095		5.977783117268701
id-1342_AU13-100_AU26-66	1	1	2	7	17	test_extra	id-1342_AU13-100_AU26-66	valence	-0.00815234071285346		1.7853510023578565
id-1342_AU13-100_AU26-66	1	1	2	7	17	test_extra	id-1342_AU13-100_AU26-66	arousal	-0.4103344825469576		1.7853510023578565
id-1362_AU13-100_AU20-33_AU43-33	1	1	2	7	18	test_extra	id-1362_AU13-100_AU20-33_AU43-33	valence	0.3858774604083972		2.135450810950715
id-1362_AU13-100_AU20-33_AU43-33	1	1	2	7	18	test_extra	id-1362_AU13-100_AU20-33_AU43-33	arousal	0.3559855444612677		2.135450810950715
id-1306_AU12-100_AU14-33_AU17-33_AU27i-33	1	1	2	7	19	test_extra	id-1306_AU12-100_AU14-33_AU17-33_AU27i-33	valence	0.3179412878012849		2.910570413732785
id-1306_AU12-100_AU14-33_AU17-33_AU27i-33	1	1	2	7	19	test_extra	id-1306_AU12-100_AU14-33_AU17-33_AU27i-33	arousal	0.3750076727912592		2.910570413732785
id-1274_AU26-100_AU9-33	1	1	2	7	20	test_extra	id-1274_AU26-100_AU9-33	valence	-0.4945753365797766		3.1105640143905475
id-1274_AU26-100_AU9-33	1	1	2	7	20	test_extra	id-1274_AU26-100_AU9-33	arousal	0.5652289560911733		3.1105640143905475
id-1293_AU24-33_AU27i-33_AU4-33	1	1	2	7	21	test_extra	id-1293_AU24-33_AU27i-33_AU4-33	valence	-0.2500051151941728		2.3188758530814084
id-1293_AU24-33_AU27i-33_AU4-33	1	1	2	7	21	test_extra	id-1293_AU24-33_AU27i-33_AU4-33	arousal	0.2554400090027418		2.3188758530814084
id-1289_AU10Open-66_AU15-66_AU43-100_AU7-100	1	1	2	7	22	test_extra	id-1289_AU10Open-66_AU15-66_AU43-100_AU7-100	valence	-0.3532680975569833		2.860685133997322
id-1289_AU10Open-66_AU15-66_AU43-100_AU7-100	1	1	2	7	22	test_extra	id-1289_AU10Open-66_AU15-66_AU43-100_AU7-100	arousal	0.29891915947129355		2.860685133997322
id-1380_AU10Open-33_AU13-33_AU16Open-100_AU22-33_AU43-66	1	1	2	7	23	test	id-1380_AU10Open-33_AU13-33_AU16Open-100_AU22-33_AU43-66	valence	-0.3940298011212506		2.8023309902291658
id-1380_AU10Open-33_AU13-33_AU16Open-100_AU22-33_AU43-66	1	1	2	7	23	test	id-1380_AU10Open-33_AU13-33_AU16Open-100_AU22-33_AU43-66	arousal	-0.30707150018414703		2.8023309902291658
id-1367_AU25-66_AU4-66_AU6-33	1	1	2	7	24	test	id-1367_AU25-66_AU4-66_AU6-33	valence	0.22283064615132792		1.968839736044174
id-1367_AU25-66_AU4-66_AU6-33	1	1	2	7	24	test	id-1367_AU25-66_AU4-66_AU6-33	arousal	-0.5924034251340181		1.968839736044174
id-1344_AU17-33_AU6-33_AU7-33	1	1	2	7	25	train	id-1344_AU17-33_AU6-33_AU7-33	valence	0.4674008675369317		1.9104237118535816
id-1344_AU17-33_AU6-33_AU7-33	1	1	2	7	25	train	id-1344_AU17-33_AU6-33_AU7-33	arousal	-0.6494698101239924		1.9104237118535816
id-1323_AU10Open-100_AU2-33_AU20-66_AU4-66	1	1	2	7	26	test_extra	id-1323_AU10Open-100_AU2-33_AU20-66_AU4-66	valence	0.3913123542169661		2.7857883912929537
id-1323_AU10Open-100_AU2-33_AU20-66_AU4-66	1	1	2	7	26	test_extra	id-1323_AU10Open-100_AU2-33_AU20-66_AU4-66	arousal	0.4510961861112248		2.7857883912929537
id-1270_AU14-66_AU15-100_AU43-33	1	1	2	7	27	test_extra	id-1270_AU14-66_AU15-100_AU43-33	valence	0.14945957973564675		3.810673376718114
id-1270_AU14-66_AU15-100_AU43-33	1	1	2	7	27	test_extra	id-1270_AU14-66_AU15-100_AU43-33	arousal	0.3260936285141384		3.810673376718114
id-1302_AU2-33_AU43-66	1	1	2	7	28	test_extra	id-1302_AU2-33_AU43-66	valence	0.4375089515898024		3.1855588602047646
id-1302_AU2-33_AU43-66	1	1	2	7	28	test_extra	id-1302_AU2-33_AU43-66	arousal	-0.33968086303556083		3.1855588602047646
id-1270_AU15-33_AU22-66	1	1	2	7	29	test_extra	id-1270_AU15-33_AU22-66	valence	0.0027174469042844872		1.2771116995972989
id-1270_AU15-33_AU22-66	1	1	2	7	29	test_extra	id-1270_AU15-33_AU22-66	arousal	-0.5434893808568974		1.2771116995972989
id-1360_AU24-66_AU26-33_AU5-100_AU7-33	1	1	2	7	30	test_extra	id-1360_AU24-66_AU26-33_AU5-100_AU7-33	valence	-0.6467523632197079		1.1604329939182207
id-1360_AU24-66_AU26-33_AU5-100_AU7-33	1	1	2	7	30	test_extra	id-1360_AU24-66_AU26-33_AU5-100_AU7-33	arousal	0.5407719339526129		1.1604329939182207
id-1370_AU11-66_AU2-100_AU25-66_AU7-66	1	1	2	7	31	test_extra	id-1370_AU11-66_AU2-100_AU25-66_AU7-66	valence	0.1032629823628105		1.2270247802425729
id-1370_AU11-66_AU2-100_AU25-66_AU7-66	1	1	2	7	31	test_extra	id-1370_AU11-66_AU2-100_AU25-66_AU7-66	arousal	0.6494698101239924		1.2270247802425729
id-1291_AU10Open-66_AU13-33_AU4-33_AU6-100	1	1	2	7	32	train	id-1291_AU10Open-66_AU13-33_AU4-33_AU6-100	valence	0.04891404427712077		3.985789236488927
id-1291_AU10Open-66_AU13-33_AU4-33_AU6-100	1	1	2	7	32	train	id-1291_AU10Open-66_AU13-33_AU4-33_AU6-100	arousal	0.5842510844211647		3.985789236488927
id-1342_AU14-33_AU20-33_AU43-100	1	1	2	7	33	test_extra	id-1342_AU14-33_AU20-33_AU43-100	valence	0.7174059827311046		2.493765622921273
id-1342_AU14-33_AU20-33_AU43-100	1	1	2	7	33	test_extra	id-1342_AU14-33_AU20-33_AU43-100	arousal	-0.4728357613455008		2.493765622921273
id-1344_AU13-100_AU16Open-66_AU43-100	1	1	2	7	34	test_extra	id-1344_AU13-100_AU16Open-66_AU43-100	valence	0.42120427016409545		2.1355362361173316
id-1344_AU13-100_AU16Open-66_AU43-100	1	1	2	7	34	test_extra	id-1344_AU13-100_AU16Open-66_AU43-100	arousal	-0.08967574784138807		2.1355362361173316
id-1296_AU22-66_AU24-66_AU25-66_AU5-66_AU6-100	1	1	2	7	35	test_extra	id-1296_AU22-66_AU24-66_AU25-66_AU5-66_AU6-100	valence	0.09782808855424154		3.9190543705535688
id-1296_AU22-66_AU24-66_AU25-66_AU5-66_AU6-100	1	1	2	7	35	test_extra	id-1296_AU22-66_AU24-66_AU25-66_AU5-66_AU6-100	arousal	0.14674213283136228		3.9190543705535688
id-1356_AU12-33_AU15-66_AU16Open-66_AU6-33_AU9-100	1	1	2	7	36	test_extra	id-1356_AU12-33_AU15-66_AU16Open-66_AU6-33_AU9-100	valence	0.26359234971559525		3.002304668410943
id-1356_AU12-33_AU15-66_AU16Open-66_AU6-33_AU9-100	1	1	2	7	36	test_extra	id-1356_AU12-33_AU15-66_AU16Open-66_AU6-33_AU9-100	arousal	0.3831600135041127		3.002304668410943
id-1269_AU15-66_AU16Open-66_AU26-33_AU27i-100	1	1	2	8	1	test	id-1269_AU15-66_AU16Open-66_AU26-33_AU27i-100	valence	-0.6847966198796908		2.435534938140336
id-1269_AU15-66_AU16Open-66_AU26-33_AU27i-100	1	1	2	8	1	test	id-1269_AU15-66_AU16Open-66_AU26-33_AU27i-100	arousal	0.6657744915496994		2.435534938140336
id-1302_AU26-100	1	1	2	8	2	train	id-1302_AU26-100	valence	-0.5516417215697509		1.7855064580526232
id-1302_AU26-100	1	1	2	8	2	train	id-1302_AU26-100	arousal	0.7337106641568115		1.7855064580526232
id-1296_AU17-66_AU26-66_AU4-66	1	1	2	8	3	train	id-1296_AU17-66_AU26-66_AU4-66	valence	-0.5842510844211647		2.2105799825585564
id-1296_AU17-66_AU26-66_AU4-66	1	1	2	8	3	train	id-1296_AU17-66_AU26-66_AU4-66	arousal	0.23913532757703485		2.2105799825585564
id-1295_AU10Open-66_AU20-66_AU27i-66	1	1	2	8	4	test_extra	id-1295_AU10Open-66_AU20-66_AU27i-66	valence	-0.8505608810410444		2.093826114805779
id-1295_AU10Open-66_AU20-66_AU27i-66	1	1	2	8	4	test_extra	id-1295_AU10Open-66_AU20-66_AU27i-66	arousal	0.5815336375168803		2.093826114805779
id-1307_AU17-66_AU2-100_AU7-66	1	1	2	8	5	test_extra	id-1307_AU17-66_AU2-100_AU7-66	valence	-0.4864229958669232		6.160902681414883
id-1307_AU17-66_AU2-100_AU7-66	1	1	2	8	5	test_extra	id-1307_AU17-66_AU2-100_AU7-66	arousal	-0.29891915947129355		6.160902681414883
id-1289_AU1-100_AU13-100_AU4-33	1	1	2	8	6	train	id-1289_AU1-100_AU13-100_AU4-33	valence	-0.6766442791668373		1.302072148950174
id-1289_AU1-100_AU13-100_AU4-33	1	1	2	8	6	train	id-1289_AU1-100_AU13-100_AU4-33	arousal	0.20652596472562101		1.302072148950174
id-1309_AU12-100_AU15-100_AU27i-100	1	1	2	8	7	test_extra	id-1309_AU12-100_AU15-100_AU27i-100	valence	-0.7038187482096819		1.4937647173519508
id-1309_AU12-100_AU15-100_AU27i-100	1	1	2	8	7	test_extra	id-1309_AU12-100_AU15-100_AU27i-100	arousal	0.5407719339526129		1.4937647173519508
id-1373_AU1-33_AU15-100_AU4-66_AU7-66_AU9-66	1	1	2	8	8	train	id-1373_AU1-33_AU15-100_AU4-66_AU7-66_AU9-66	valence	-0.5733812968040267		3.227393044217024
id-1373_AU1-33_AU15-100_AU4-66_AU7-66_AU9-66	1	1	2	8	8	train	id-1373_AU1-33_AU15-100_AU4-66_AU7-66_AU9-66	arousal	-0.5190323587183371		3.227393044217024
id-1363_AU10Open-33_AU14-66_AU9-33	1	1	2	8	9	test_extra	id-1363_AU10Open-33_AU14-66_AU9-33	valence	0.38044256659982817		1.7104132072745415
id-1363_AU10Open-33_AU14-66_AU9-33	1	1	2	8	9	test_extra	id-1363_AU10Open-33_AU14-66_AU9-33	arousal	0.4782706551540697		1.7104132072745415
id-1315_AU5-33_AU6-66	1	1	2	8	10	test_extra	id-1315_AU5-33_AU6-66	valence	0.0		2.25238639584677
id-1315_AU5-33_AU6-66	1	1	2	8	10	test_extra	id-1315_AU5-33_AU6-66	arousal	0.5788161906125957		2.25238639584677
id-1279_AU17-66_AU20-33_AU24-100_AU27i-66	1	1	2	8	11	train	id-1279_AU17-66_AU20-33_AU24-100_AU27i-66	valence	-0.13043745140565535		3.027217726415984
id-1279_AU17-66_AU20-33_AU24-100_AU27i-66	1	1	2	8	11	train	id-1279_AU17-66_AU20-33_AU24-100_AU27i-66	arousal	-0.8532783279453289		3.027217726415984
id-1291_AU12-33_AU17-100_AU5-66	1	1	2	8	12	test_extra	id-1291_AU12-33_AU17-100_AU5-66	valence	0.3885949073126817		1.8771516652941496
id-1291_AU12-33_AU17-100_AU5-66	1	1	2	8	12	test_extra	id-1291_AU12-33_AU17-100_AU5-66	arousal	-0.5733812968040267		1.8771516652941496
id-1285_AU15-100_AU17-33_AU7-66_AU9-33	1	1	2	8	13	test_extra	id-1285_AU15-100_AU17-33_AU7-66_AU9-33	valence	-0.7418630048696649		4.294274008321737
id-1285_AU15-100_AU17-33_AU7-66_AU9-33	1	1	2	8	13	test_extra	id-1285_AU15-100_AU17-33_AU7-66_AU9-33	arousal	0.4701183144412162		4.294274008321737
id-1269_AU12-33_AU17-66_AU9-100	1	1	2	8	14	test_extra	id-1269_AU12-33_AU17-66_AU9-100	valence	0.6386000225068544		1.0357575265461492
id-1269_AU12-33_AU17-66_AU9-100	1	1	2	8	14	test_extra	id-1269_AU12-33_AU17-66_AU9-100	arousal	0.4565310799197938		1.0357575265461492
id-1295_AU11-66_AU24-66_AU43-100_AU6-33	1	1	2	8	15	train	id-1295_AU11-66_AU24-66_AU43-100_AU6-33	valence	0.3260936285141384		3.9523852789789085
id-1295_AU11-66_AU24-66_AU43-100_AU6-33	1	1	2	8	15	train	id-1295_AU11-66_AU24-66_AU43-100_AU6-33	arousal	-0.6956664074968286		3.9523852789789085
id-1360_AU6-33_AU9-33	1	1	2	8	16	test_extra	id-1360_AU6-33_AU9-33	valence	0.1277200045013709		1.8021073151412563
id-1360_AU6-33_AU9-33	1	1	2	8	16	test_extra	id-1360_AU6-33_AU9-33	arousal	-0.6630570446454148		1.8021073151412563
id-1293_AU6-33_AU7-66	1	1	2	8	17	test_extra	id-1293_AU6-33_AU7-66	valence	0.2255480930556124		0.9186960678161996
id-1293_AU6-33_AU7-66	1	1	2	8	17	test_extra	id-1293_AU6-33_AU7-66	arousal	-0.2255480930556124		0.9186960678161996
id-1378_AU14-66_AU16Open-66	1	1	2	8	18	test_extra	id-1378_AU14-66_AU16Open-66	valence	0.4755532082497852		1.6187867150874808
id-1378_AU14-66_AU16Open-66	1	1	2	8	18	test_extra	id-1378_AU14-66_AU16Open-66	arousal	0.7119710889225355		1.6187867150874808
id-1363_AU16Open-66_AU4-33_AU6-66_AU9-100	1	1	2	8	19	test_extra	id-1363_AU16Open-66_AU4-33_AU6-66_AU9-100	valence	0.42120427016409545		5.235951559401657
id-1363_AU16Open-66_AU4-33_AU6-66_AU9-100	1	1	2	8	19	test_extra	id-1363_AU16Open-66_AU4-33_AU6-66_AU9-100	arousal	0.5462068277611818		5.235951559401657
id-1315_AU14-100_AU26-66	1	1	2	8	20	train	id-1315_AU14-100_AU26-66	valence	-0.5543591684740353		4.052370457864527
id-1315_AU14-100_AU26-66	1	1	2	8	20	train	id-1315_AU14-100_AU26-66	arousal	0.4755532082497852		4.052370457864527
id-1341_AU1-33_AU15-33_AU2-66_AU4-33	1	1	2	8	21	test	id-1341_AU1-33_AU15-33_AU2-66_AU4-33	valence	0.40489958873838855		1.2520591842458089
id-1341_AU1-33_AU15-33_AU2-66_AU4-33	1	1	2	8	21	test	id-1341_AU1-33_AU15-33_AU2-66_AU4-33	arousal	-0.3505506506526989		1.2520591842458089
id-1380_AU13-100_AU14-66_AU2-100	1	1	2	8	22	test_extra	id-1380_AU13-100_AU14-66_AU2-100	valence	0.33968086303556083		4.585739852893312
id-1380_AU13-100_AU14-66_AU2-100	1	1	2	8	22	test_extra	id-1380_AU13-100_AU14-66_AU2-100	arousal	0.2581574559070263		4.585739852893312
id-1354_AU16Open-33_AU20-33_AU25-100_AU7-66	1	1	2	8	23	test_extra	id-1354_AU16Open-33_AU20-33_AU25-100_AU7-66	valence	-0.5869685313254491		5.202784256776795
id-1354_AU16Open-33_AU20-33_AU25-100_AU7-66	1	1	2	8	23	test_extra	id-1354_AU16Open-33_AU20-33_AU25-100_AU7-66	arousal	-0.6141430003682941		5.202784256776795
id-1345_AU14-100	1	1	2	8	24	train	id-1345_AU14-100	valence	0.4646834206326473		2.652292699831378
id-1345_AU14-100	1	1	2	8	24	train	id-1345_AU14-100	arousal	-0.7092536420182511		2.652292699831378
id-1310_AU2-100_AU25-66_AU6-66_AU7-100	1	1	2	8	25	test_extra	id-1310_AU2-100_AU25-66_AU6-66_AU7-100	valence	0.1684817080656382		2.893921561584648
id-1310_AU2-100_AU25-66_AU6-66_AU7-100	1	1	2	8	25	test_extra	id-1310_AU2-100_AU25-66_AU6-66_AU7-100	arousal	0.21196085853419		2.893921561584648
id-1260_AU17-33_AU24-100_AU6-33	1	1	2	8	26	train	id-1260_AU17-33_AU24-100_AU6-33	valence	-0.40489958873838855		0.6852031232392619
id-1260_AU17-33_AU24-100_AU6-33	1	1	2	8	26	train	id-1260_AU17-33_AU24-100_AU6-33	arousal	0.4891404427712077		0.6852031232392619
id-1373_AU11-33_AU13-100_AU16Open-66_AU43-33	1	1	2	8	27	test	id-1373_AU11-33_AU13-100_AU16Open-66_AU43-33	valence	0.3777251196955437		2.210559758224917
id-1373_AU11-33_AU13-100_AU16Open-66_AU43-33	1	1	2	8	27	test	id-1373_AU11-33_AU13-100_AU16Open-66_AU43-33	arousal	-0.402182141834104		2.210559758224917
id-1356_AU6-33	1	1	2	8	28	test	id-1356_AU6-33	valence	0.105980429267095		1.6521942948656942
id-1356_AU6-33	1	1	2	8	28	test	id-1356_AU6-33	arousal	0.13858979211850886		1.6521942948656942
id-1293_AU10Open-66_AU26-100_AU27i-66_AU6-100	1	1	2	8	29	test_extra	id-1293_AU10Open-66_AU26-100_AU27i-66_AU6-100	valence	-0.8016468367639237		1.7772507041536298
id-1293_AU10Open-66_AU26-100_AU27i-66_AU6-100	1	1	2	8	29	test_extra	id-1293_AU10Open-66_AU26-100_AU27i-66_AU6-100	arousal	0.6087081065597252		1.7772507041536298
id-1345_AU12-66	1	1	2	8	30	test_extra	id-1345_AU12-66	valence	0.7146885358268201		1.8604714201483148
id-1345_AU12-66	1	1	2	8	30	test_extra	id-1345_AU12-66	arousal	-0.7608851331996563		1.8604714201483148
id-1297_AU11-100_AU24-33	1	1	2	8	31	test	id-1297_AU11-100_AU24-33	valence	-0.312506393992716		4.4274687496326806
id-1297_AU11-100_AU24-33	1	1	2	8	31	test	id-1297_AU11-100_AU24-33	arousal	0.2880493718541556		4.4274687496326806
id-1370_AU13-100_AU16Open-66_AU20-100	1	1	2	8	32	train	id-1370_AU13-100_AU16Open-66_AU20-100	valence	0.5000102303883456		1.6605846764159649
id-1370_AU13-100_AU16Open-66_AU20-100	1	1	2	8	32	train	id-1370_AU13-100_AU16Open-66_AU20-100	arousal	0.4972927834840611		1.6605846764159649
id-1310_AU12-33_AU14-33_AU22-100_AU6-100	1	1	2	8	33	test	id-1310_AU12-33_AU14-33_AU22-100_AU6-100	valence	0.5271846994311905		1.5770307117054472
id-1310_AU12-33_AU14-33_AU22-100_AU6-100	1	1	2	8	33	test	id-1310_AU12-33_AU14-33_AU22-100_AU6-100	arousal	0.4266391639726645		1.5770307117054472
id-1264_AU26-100_AU6-66_AU7-33	1	1	2	8	34	test_extra	id-1264_AU26-100_AU6-66_AU7-33	valence	0.2418527744813193		4.52746177676454
id-1264_AU26-100_AU6-66_AU7-33	1	1	2	8	34	test_extra	id-1264_AU26-100_AU6-66_AU7-33	arousal	-0.3641378851741212		4.52746177676454
id-1370_AU1-33_AU26-66_AU7-100	1	1	2	8	35	test_extra	id-1370_AU1-33_AU26-66_AU7-100	valence	0.4157693763555265		1.2603704795983504
id-1370_AU1-33_AU26-66_AU7-100	1	1	2	8	35	test_extra	id-1370_AU1-33_AU26-66_AU7-100	arousal	-0.7309932172525271		1.2603704795983504
id-1376_AU1-100_AU13-33_AU14-33_AU27i-66	1	1	2	8	36	test	id-1376_AU1-100_AU13-33_AU14-33_AU27i-66	valence	-0.4837055489626387		4.385732366872617
id-1376_AU1-100_AU13-33_AU14-33_AU27i-66	1	1	2	8	36	test	id-1376_AU1-100_AU13-33_AU14-33_AU27i-66	arousal	-0.5570766153783199		4.385732366872617
id-1347_AU10Open-100_AU25-100	1	1	3	9	1	test_extra	id-1347_AU10Open-100_AU25-100	valence	-0.3043540532798626		1.960489803163
id-1347_AU10Open-100_AU25-100	1	1	3	9	1	test_extra	id-1347_AU10Open-100_AU25-100	arousal	0.2744621373327332		1.960489803163
id-1358_AU13-33_AU15-33	1	1	3	9	2	train	id-1358_AU13-33_AU15-33	valence	-0.201091070917052		1.027166410945938
id-1358_AU13-33_AU15-33	1	1	3	9	2	train	id-1358_AU13-33_AU15-33	arousal	-0.5679464029954577		1.027166410945938
id-1260_AU20-100_AU25-33_AU4-33	1	1	3	9	3	train	id-1260_AU20-100_AU25-33_AU4-33	valence	0.19022128329991408		3.218942895236978
id-1260_AU20-100_AU25-33_AU4-33	1	1	3	9	3	train	id-1260_AU20-100_AU25-33_AU4-33	arousal	-0.4103344825469576		3.218942895236978
id-1373_AU7-66	1	1	3	9	4	test_extra	id-1373_AU7-66	valence	0.1277200045013709		1.4786064287418412
id-1373_AU7-66	1	1	3	9	4	test_extra	id-1373_AU7-66	arousal	-0.6902315136882597		1.4786064287418412
id-1295_AU12-33_AU2-66_AU27i-66	1	1	3	9	5	test_extra	id-1295_AU12-33_AU2-66_AU27i-66	valence	0.14674213283136228		1.4187777197876132
id-1295_AU12-33_AU2-66_AU27i-66	1	1	3	9	5	test_extra	id-1295_AU12-33_AU2-66_AU27i-66	arousal	0.50272767729263		1.4187777197876132
id-1295_AU11-33_AU12-100_AU13-100_AU20-33_AU9-66	1	1	3	9	6	test	id-1295_AU11-33_AU12-100_AU13-100_AU20-33_AU9-66	valence	-0.6793617260711217		1.6438057244504307
id-1295_AU11-33_AU12-100_AU13-100_AU20-33_AU9-66	1	1	3	9	6	test	id-1295_AU11-33_AU12-100_AU13-100_AU20-33_AU9-66	arousal	0.3641378851741212		1.6438057244504307
id-1302_AU10Open-33_AU14-100_AU24-33_AU43-100	1	1	3	9	7	train	id-1302_AU10Open-33_AU14-100_AU24-33_AU43-100	valence	-0.4157693763555265		4.560734125181625
id-1302_AU10Open-33_AU14-100_AU24-33_AU43-100	1	1	3	9	7	train	id-1302_AU10Open-33_AU14-100_AU24-33_AU43-100	arousal	0.3858774604083972		4.560734125181625
id-1307_AU16Open-100_AU22-100_AU6-100_AU7-33	1	1	3	9	8	test_extra	id-1307_AU16Open-100_AU22-100_AU6-100_AU7-33	valence	0.1521770266399313		1.0771045154306194
id-1307_AU16Open-100_AU22-100_AU6-100_AU7-33	1	1	3	9	8	test_extra	id-1307_AU16Open-100_AU22-100_AU6-100_AU7-33	arousal	0.21467830543847446		1.0771045154306194
id-1347_AU11-33_AU4-100	1	1	3	9	9	train	id-1347_AU11-33_AU4-100	valence	-0.21196085853419		3.9523834678457206
id-1347_AU11-33_AU4-100	1	1	3	9	9	train	id-1347_AU11-33_AU4-100	arousal	0.07337106641568114		3.9523834678457206
id-1285_AU10Open-66_AU17-100_AU9-66	1	1	3	9	10	test_extra	id-1285_AU10Open-66_AU17-100_AU9-66	valence	-0.6521872570282768		1.718897164095324
id-1285_AU10Open-66_AU17-100_AU9-66	1	1	3	9	10	test_extra	id-1285_AU10Open-66_AU17-100_AU9-66	arousal	0.5380544870483285		1.718897164095324
id-1279_AU13-66_AU20-33	1	1	3	9	11	test_extra	id-1279_AU13-66_AU20-33	valence	0.7011013013053977		1.1355458955022186
id-1279_AU13-66_AU20-33	1	1	3	9	11	test_extra	id-1279_AU13-66_AU20-33	arousal	-0.6793617260711217		1.1355458955022186
id-1270_AU12-33_AU15-33_AU17-100_AU24-66	1	1	3	9	12	test_extra	id-1270_AU12-33_AU15-33_AU17-100_AU24-66	valence	0.28261447804558665		1.3605503554190364
id-1270_AU12-33_AU15-33_AU17-100_AU24-66	1	1	3	9	12	test_extra	id-1270_AU12-33_AU15-33_AU17-100_AU24-66	arousal	-0.5869685313254491		1.3605503554190364
id-1362_AU11-100_AU17-33_AU43-66	1	1	3	9	13	test_extra	id-1362_AU11-100_AU17-33_AU43-66	valence	0.24457022138560386		1.8688059583910217
id-1362_AU11-100_AU17-33_AU43-66	1	1	3	9	13	test_extra	id-1362_AU11-100_AU17-33_AU43-66	arousal	-0.5951208720383027		1.8688059583910217
id-1315_AU1-66_AU20-66	1	1	3	9	14	test_extra	id-1315_AU1-66_AU20-66	valence	-0.6413174694111391		1.810462379569799
id-1315_AU1-66_AU20-66	1	1	3	9	14	test_extra	id-1315_AU1-66_AU20-66	arousal	-0.5570766153783199		1.810462379569799
id-1260_AU12-33	1	1	3	9	15	test_extra	id-1260_AU12-33	valence	0.6739268322625528		0.8603947487972619
id-1260_AU12-33	1	1	3	9	15	test_extra	id-1260_AU12-33	arousal	-0.6956664074968286		0.8603947487972619
id-1273_AU11-100_AU15-33_AU20-33	1	1	3	9	16	test_extra	id-1273_AU11-100_AU15-33_AU20-33	valence	-0.2364178806727504		2.6604729897990183
id-1273_AU11-100_AU15-33_AU20-33	1	1	3	9	16	test_extra	id-1273_AU11-100_AU15-33_AU20-33	arousal	-0.625012787985432		2.6604729897990183
id-1273_AU1-100_AU14-66_AU25-33_AU5-100	1	1	3	9	17	test_extra	id-1273_AU1-100_AU14-66_AU25-33_AU5-100	valence	0.5896859782297337		1.5937450665460346
id-1273_AU1-100_AU14-66_AU25-33_AU5-100	1	1	3	9	17	test_extra	id-1273_AU1-100_AU14-66_AU25-33_AU5-100	arousal	0.2092434116299055		1.5937450665460346
id-1279_AU22-33_AU26-33_AU4-33	1	1	3	9	18	test	id-1279_AU22-33_AU26-33_AU4-33	valence	-0.30707150018414703		2.2605141629210266
id-1279_AU22-33_AU26-33_AU4-33	1	1	3	9	18	test	id-1279_AU22-33_AU26-33_AU4-33	arousal	-0.50272767729263		2.2605141629210266
id-1273_AU11-33_AU14-33_AU26-100	1	1	3	9	19	train	id-1273_AU11-33_AU14-33_AU26-100	valence	0.40761703564267293		1.410395488344875
id-1273_AU11-33_AU14-33_AU26-100	1	1	3	9	19	train	id-1273_AU11-33_AU14-33_AU26-100	arousal	0.4728357613455008		1.410395488344875
id-1315_AU2-100_AU24-100	1	1	3	9	20	train	id-1315_AU2-100_AU24-100	valence	-0.010869787617137949		4.5025484169018455
id-1315_AU2-100_AU24-100	1	1	3	9	20	train	id-1315_AU2-100_AU24-100	arousal	0.5380544870483285		4.5025484169018455
id-1310_AU20-33_AU24-33	1	1	3	9	21	train	id-1310_AU20-33_AU24-33	valence	-0.17935149568277614		3.9195337174351152
id-1310_AU20-33_AU24-33	1	1	3	9	21	train	id-1310_AU20-33_AU24-33	arousal	-0.5951208720383027		3.9195337174351152
id-1347_AU17-66_AU26-100_AU27i-100_AU9-33	1	1	3	9	22	test_extra	id-1347_AU17-66_AU26-100_AU27i-100_AU9-33	valence	-0.7445804517739495		1.243733399822304
id-1347_AU17-66_AU26-100_AU27i-100_AU9-33	1	1	3	9	22	test_extra	id-1347_AU17-66_AU26-100_AU27i-100_AU9-33	arousal	0.6929489605925442		1.243733399822304
id-1260_AU24-66_AU26-66_AU5-33_AU6-66	1	1	3	9	23	test_extra	id-1260_AU24-66_AU26-66_AU5-33_AU6-66	valence	-0.19293873020419855		1.31882302833219
id-1260_AU24-66_AU26-66_AU5-33_AU6-66	1	1	3	9	23	test_extra	id-1260_AU24-66_AU26-66_AU5-33_AU6-66	arousal	0.3451157568441299		1.31882302833219
id-1335_AU43-66_AU5-66	1	1	3	9	24	test	id-1335_AU43-66_AU5-66	valence	0.8858876907967428		2.102178764389464
id-1335_AU43-66_AU5-66	1	1	3	9	24	test	id-1335_AU43-66_AU5-66	arousal	-0.8723004562753204		2.102178764389464
id-1376_AU27i-66_AU6-100	1	1	3	9	25	test_extra	id-1376_AU27i-66_AU6-100	valence	-0.3369634161312764		1.4270977689538995
id-1376_AU27i-66_AU6-100	1	1	3	9	25	test_extra	id-1376_AU27i-66_AU6-100	arousal	-0.7744723677210787		1.4270977689538995
id-1285_AU26-33_AU5-100	1	1	3	9	26	test_extra	id-1285_AU26-33_AU5-100	valence	-0.4918578896754921		2.8606184238851715
id-1285_AU26-33_AU5-100	1	1	3	9	26	test_extra	id-1285_AU26-33_AU5-100	arousal	-0.6141430003682941		2.8606184238851715
id-1260_AU14-33_AU20-33_AU25-33	1	1	3	9	27	test_extra	id-1260_AU14-33_AU20-33_AU25-33	valence	0.3831600135041127		3.9608381446632848
id-1260_AU14-33_AU20-33_AU25-33	1	1	3	9	27	test_extra	id-1260_AU14-33_AU20-33_AU25-33	arousal	-0.4918578896754921		3.9608381446632848
id-1356_AU12-33_AU17-66_AU5-33_AU9-66	1	1	3	9	28	train	id-1356_AU12-33_AU17-66_AU5-33_AU9-66	valence	0.3451157568441299		3.093935688431884
id-1356_AU12-33_AU17-66_AU5-33_AU9-66	1	1	3	9	28	train	id-1356_AU12-33_AU17-66_AU5-33_AU9-66	arousal	0.3179412878012849		3.093935688431884
id-1290_AU10Open-33_AU14-66_AU24-66	1	1	3	9	29	test	id-1290_AU10Open-33_AU14-66_AU24-66	valence	-0.00815234071285346		1.6269938702153013
id-1290_AU10Open-33_AU14-66_AU24-66	1	1	3	9	29	test	id-1290_AU10Open-33_AU14-66_AU24-66	arousal	0.4945753365797766		1.6269938702153013
id-1366_AU14-33_AU2-100_AU26-100_AU27i-100	1	1	3	9	30	test	id-1366_AU14-33_AU2-100_AU26-100_AU27i-100	valence	-0.5353370401440439		1.0950640251085133
id-1366_AU14-33_AU2-100_AU26-100_AU27i-100	1	1	3	9	30	test	id-1366_AU14-33_AU2-100_AU26-100_AU27i-100	arousal	0.29620171256700906		1.0950640251085133
id-1306_AU15-66_AU27i-66_AU43-33	1	1	3	9	31	train	id-1306_AU15-66_AU27i-66_AU43-33	valence	-0.4103344825469576		2.9938107503494398
id-1306_AU15-66_AU27i-66_AU43-33	1	1	3	9	31	train	id-1306_AU15-66_AU27i-66_AU43-33	arousal	-0.4320740577812335		2.9938107503494398
id-1264_AU13-100_AU15-33_AU22-33	1	1	3	9	32	test_extra	id-1264_AU13-100_AU15-33_AU22-33	valence	0.0027174469042844872		1.2353348681699572
id-1264_AU13-100_AU15-33_AU22-33	1	1	3	9	32	test_extra	id-1264_AU13-100_AU15-33_AU22-33	arousal	0.013587234521422437		1.2353348681699572
id-1318_AU22-100_AU26-100_AU27i-33_AU4-33_AU6-33	1	1	3	9	33	test	id-1318_AU22-100_AU26-100_AU27i-33_AU4-33_AU6-33	valence	-0.4728357613455008		1.0769149500392814
id-1318_AU22-100_AU26-100_AU27i-33_AU4-33_AU6-33	1	1	3	9	33	test	id-1318_AU22-100_AU26-100_AU27i-33_AU4-33_AU6-33	arousal	0.4510961861112248		1.0769149500392814
id-1345_AU12-66_AU20-100	1	1	3	9	34	test_extra	id-1345_AU12-66_AU20-100	valence	0.4782706551540697		1.5520397749241963
id-1345_AU12-66_AU20-100	1	1	3	9	34	test_extra	id-1345_AU12-66_AU20-100	arousal	0.4347915046855179		1.5520397749241963
id-1302_AU1-33_AU22-33_AU24-66_AU43-100_AU9-66	1	1	3	9	35	train	id-1302_AU1-33_AU22-33_AU24-66_AU43-100_AU9-66	valence	0.42120427016409545		2.3023471395081287
id-1302_AU1-33_AU22-33_AU24-66_AU43-100_AU9-66	1	1	3	9	35	train	id-1302_AU1-33_AU22-33_AU24-66_AU43-100_AU9-66	arousal	-0.8396910934239064		2.3023471395081287
id-1361_AU12-33_AU15-33_AU16Open-100_AU6-66	1	1	3	9	36	test	id-1361_AU12-33_AU15-33_AU16Open-100_AU6-66	valence	-0.5054451241969146		1.602198234084426
id-1361_AU12-33_AU15-33_AU16Open-100_AU6-66	1	1	3	9	36	test	id-1361_AU12-33_AU15-33_AU16Open-100_AU6-66	arousal	0.21739575234275896		1.602198234084426
id-1296_AU22-33_AU24-100_AU7-33_AU9-100	1	1	3	10	1	test_extra	id-1296_AU22-33_AU24-100_AU7-33_AU9-100	emotion	Walging	0.19749656694331152	1.3614625634018012
id-1290_AU20-100_AU43-100	1	1	3	10	2	test_extra	id-1290_AU20-100_AU43-100	emotion	Walging	0.4695722643098703	2.3865093434924347
id-1377_AU10Open-33_AU13-33_AU24-100_AU6-66	1	1	3	10	3	test_extra	id-1377_AU10Open-33_AU13-33_AU24-100_AU6-66	emotion	Walging	0.12955374333937172	2.5949826749892964
id-1310_AU1-100_AU24-100_AU5-33	1	1	3	10	4	test_extra	id-1310_AU1-100_AU24-100_AU5-33	emotion	Bang	0.2842821639182411	1.4197644861305891
id-1339_AU11-100_AU15-66_AU43-33	1	1	3	10	5	test_extra	id-1339_AU11-100_AU15-66_AU43-33	emotion	Boos	0.10193554471884347	3.536956346530133
id-1289_AU1-100_AU12-100_AU13-100_AU17-33	1	1	3	10	6	test_extra	id-1289_AU1-100_AU12-100_AU13-100_AU17-33	emotion	Blij	0.3280001139994196	1.1783019468784914
id-1360_AU1-100_AU13-66_AU27i-100_AU4-33_AU9-100	1	1	3	10	7	test_extra	id-1360_AU1-100_AU13-66_AU27i-100_AU4-33_AU9-100	emotion	Verrassing	0.6086714364860267	2.036518504810374
id-1345_AU17-100_AU20-33	1	1	3	10	8	test_extra	id-1345_AU17-100_AU20-33	emotion	Verdrietig	0.3202176631366752	1.3781735978282086
id-1373_AU1-33_AU26-100_AU27i-66_AU7-66	1	1	3	10	9	test_extra	id-1373_AU1-33_AU26-100_AU27i-66_AU7-66	emotion	Bang	0.5905372339084954	1.3196978062042035
id-1289_AU17-33_AU26-66	1	1	3	10	10	test	id-1289_AU17-33_AU26-66	emotion	Bang	0.17113607946135678	1.9864880324767
id-1296_AU13-66_AU14-100_AU17-66	1	1	3	10	11	test_extra	id-1296_AU13-66_AU14-100_AU17-66	emotion	Blij	0.3845831764778076	1.2948107077882014
id-1339_AU1-66_AU25-66_AU43-100	1	1	3	10	12	train	id-1339_AU1-66_AU25-66_AU43-100	emotion	Blij	0.5184014344108198	1.38694461943669
id-1354_AU6-100	1	1	3	10	13	train	id-1354_AU6-100	emotion	Verdrietig	0.4543669006835955	1.2282038286775787
id-1264_AU1-100_AU4-100	1	1	3	10	14	test_extra	id-1264_AU1-100_AU4-100	emotion	Verdrietig	0.11979027762953072	0.919674382199446
id-1370_AU20-33_AU26-100	1	1	3	10	15	test_extra	id-1370_AU20-33_AU26-100	emotion	Walging	0.3299570295695869	4.1033861872638235
id-1280_AU11-33_AU17-66_AU2-66_AU26-66_AU9-66	1	1	3	10	16	test	id-1280_AU11-33_AU17-66_AU2-66_AU26-66_AU9-66	emotion	Boos	0.3632474796545917	1.0863624303128745
id-1378_AU14-66_AU2-66_AU5-33_AU7-66	1	1	3	10	17	test_extra	id-1378_AU14-66_AU2-66_AU5-33_AU7-66	emotion	Blij	0.7308573394237975	0.8447918267138448
id-1354_AU16Open-66_AU27i-33_AU5-100	1	1	3	10	18	test_extra	id-1354_AU16Open-66_AU27i-33_AU5-100	emotion	Walging	0.5149006125954685	1.39491753452603
id-1296_AU16Open-100_AU17-100_AU27i-33	1	1	3	10	19	train	id-1296_AU16Open-100_AU17-100_AU27i-33	emotion	Bang	0.5515778777367855	0.8530780680393946
id-1360_AU11-100_AU16Open-66_AU22-100_AU25-66_AU26-33	1	1	3	10	20	test_extra	id-1360_AU11-100_AU16Open-66_AU22-100_AU25-66_AU26-33	emotion	Bang	0.486495657646363	1.1448810854490148
id-1339_AU11-100_AU20-100_AU4-33	1	1	3	10	21	test_extra	id-1339_AU11-100_AU20-100_AU4-33	emotion	Boos	0.26489768786665074	2.2717428937885416
id-1370_AU10Open-100_AU2-33_AU27i-66_AU5-66	1	1	3	10	22	test	id-1370_AU10Open-100_AU2-33_AU27i-66_AU5-66	emotion	Verrassing	0.27740939053575736	1.0698424705569778
id-1360_AU12-100_AU43-66_AU7-33	1	1	3	10	23	test_extra	id-1360_AU12-100_AU43-66_AU7-33	emotion	Walging	0.2461373802894301	4.1807539208784865
id-1345_AU12-33_AU27i-66_AU7-100_AU9-66	1	1	3	10	24	train	id-1345_AU12-33_AU27i-66_AU7-100_AU9-66	emotion	Verrassing	0.4451542984339529	1.7113734103131717
id-1361_AU10Open-33_AU11-100_AU13-66_AU2-100	1	1	3	10	25	train	id-1361_AU10Open-33_AU11-100_AU13-66_AU2-100	emotion	Walging	0.4512516536122336	3.203430228011712
id-1354_AU10Open-100_AU17-100_AU27i-33_AU4-33	1	1	3	10	26	test_extra	id-1354_AU10Open-100_AU17-100_AU27i-33_AU4-33	emotion	Verrassing	0.6342354689196403	1.7865372953292535
id-1376_AU10Open-100_AU11-66_AU25-33_AU27i-66_AU9-100	1	1	3	10	27	test_extra	id-1376_AU10Open-100_AU11-66_AU25-33_AU27i-66_AU9-100	emotion	Boos	0.5788791697730485	2.311613808209586
id-1339_AU10Open-100_AU12-33_AU20-100_AU27i-33	1	1	3	10	28	test	id-1339_AU10Open-100_AU12-33_AU20-100_AU27i-33	emotion	Blij	0.5859571148418268	1.1782213514034083
id-1310_AU2-66	1	1	3	10	29	test_extra	id-1310_AU2-66	emotion	Boos	0.2399799912005983	1.3446778761808669
id-1362_AU5-33_AU6-66_AU7-33	1	1	3	10	30	test	id-1362_AU5-33_AU6-66_AU7-33	emotion	Boos	0.1903608846426809	3.911929670031896
id-1344_AU1-33_AU10Open-100	1	1	3	10	31	test_extra	id-1344_AU1-33_AU10Open-100	emotion	Boos	0.21782299560256727	1.1446341674709402
id-1307_AU10Open-66_AU17-33_AU22-33_AU9-100	1	1	3	10	32	test	id-1307_AU10Open-66_AU17-33_AU22-33_AU9-100	emotion	Walging	0.5449985285227941	1.0446085399198637
id-1339_AU17-100_AU2-33_AU22-33_AU25-33	1	1	3	10	33	train	id-1339_AU17-100_AU2-33_AU22-33_AU25-33	emotion	Blij	0.6141035879927133	1.3530272053503722
id-1339_AU14-100_AU15-66_AU26-33	1	1	3	10	34	train	id-1339_AU14-100_AU15-66_AU26-33	emotion	Bang	0.25968416395470273	1.4219976147360285
id-1273_AU12-100_AU16Open-33_AU20-100_AU22-66_AU5-66	1	1	3	10	35	test	id-1273_AU12-100_AU16Open-33_AU20-100_AU22-66_AU5-66	emotion	Blij	0.6703309973471572	1.078042381146588
id-1285_AU11-66_AU4-33	1	1	3	10	36	train	id-1285_AU11-66_AU4-33	emotion	Bang	0.4066418239819651	1.0029666380014532
id-1290_AU2-100_AU20-33_AU24-33_AU25-66_AU6-66	1	1	3	11	1	test_extra	id-1290_AU2-100_AU20-33_AU24-33_AU25-66_AU6-66	valence	-0.2663097966198797		3.3272755921570933
id-1290_AU2-100_AU20-33_AU24-33_AU25-66_AU6-66	1	1	3	11	1	test_extra	id-1290_AU2-100_AU20-33_AU24-33_AU25-66_AU6-66	arousal	-0.6195778941768629		3.3272755921570933
id-1289_AU20-33_AU26-66_AU9-66	1	1	3	11	2	train	id-1289_AU20-33_AU26-66_AU9-66	valence	-0.0625012787985432		3.569000745885205
id-1289_AU20-33_AU26-66_AU9-66	1	1	3	11	2	train	id-1289_AU20-33_AU26-66_AU9-66	arousal	-0.17391660187420716		3.569000745885205
id-1355_AU12-100_AU26-33_AU5-66	1	1	3	11	3	test_extra	id-1355_AU12-100_AU26-33_AU5-66	valence	-0.1820689425870606		0.9521187403806834
id-1355_AU12-100_AU26-33_AU5-66	1	1	3	11	3	test_extra	id-1355_AU12-100_AU26-33_AU5-66	arousal	-0.6820791729754062		0.9521187403806834
id-1355_AU11-100_AU15-100_AU2-66_AU25-33	1	1	3	11	4	train	id-1355_AU11-100_AU15-100_AU2-66_AU25-33	valence	-0.15761192044850025		0.8936148761749791
id-1355_AU11-100_AU15-100_AU2-66_AU25-33	1	1	3	11	4	train	id-1355_AU11-100_AU15-100_AU2-66_AU25-33	arousal	-0.7608851331996563		0.8936148761749791
id-1376_AU10Open-100_AU11-100_AU16Open-66_AU22-33	1	1	3	11	5	test_extra	id-1376_AU10Open-100_AU11-100_AU16Open-66_AU22-33	valence	-0.03260936285141384		1.4520929317150149
id-1376_AU10Open-100_AU11-100_AU16Open-66_AU22-33	1	1	3	11	5	test_extra	id-1376_AU10Open-100_AU11-100_AU16Open-66_AU22-33	arousal	0.33968086303556083		1.4520929317150149
id-1270_AU11-100_AU15-100_AU20-66_AU7-66	1	1	3	11	6	test	id-1270_AU11-100_AU15-100_AU20-66_AU7-66	valence	-0.3260936285141384		1.760501334050787
id-1270_AU11-100_AU15-100_AU20-66_AU7-66	1	1	3	11	6	test	id-1270_AU11-100_AU15-100_AU20-66_AU7-66	arousal	-0.402182141834104		1.760501334050787
id-1260_AU11-66_AU14-66_AU43-33	1	1	3	11	7	test_extra	id-1260_AU11-66_AU14-66_AU43-33	valence	0.3097889470884315		1.1354435664125049
id-1260_AU11-66_AU14-66_AU43-33	1	1	3	11	7	test_extra	id-1260_AU11-66_AU14-66_AU43-33	arousal	-0.6331651286982856		1.1354435664125049
id-1266_AU11-66_AU17-100_AU43-66_AU6-66	1	1	3	11	8	test_extra	id-1266_AU11-66_AU17-100_AU43-66_AU6-66	valence	0.1521770266399313		0.9687534053100536
id-1266_AU11-66_AU17-100_AU43-66_AU6-66	1	1	3	11	8	test_extra	id-1266_AU11-66_AU17-100_AU43-66_AU6-66	arousal	-0.6956664074968286		0.9687534053100536
id-1323_AU25-33_AU26-66	1	1	3	11	9	test_extra	id-1323_AU25-33_AU26-66	valence	0.1820689425870606		4.3275173785878
id-1323_AU25-33_AU26-66	1	1	3	11	9	test_extra	id-1323_AU25-33_AU26-66	arousal	0.41305192945124203		4.3275173785878
id-1309_AU11-66_AU24-66	1	1	3	11	10	test	id-1309_AU11-66_AU24-66	valence	-0.00815234071285346		1.1936962866620888
id-1309_AU11-66_AU24-66	1	1	3	11	10	test	id-1309_AU11-66_AU24-66	arousal	0.2663097966198797		1.1936962866620888
id-1342_AU1-100_AU27i-33	1	1	3	11	11	test_extra	id-1342_AU1-100_AU27i-33	valence	-0.40489958873838855		5.494276966506732
id-1342_AU1-100_AU27i-33	1	1	3	11	11	test_extra	id-1342_AU1-100_AU27i-33	arousal	-0.5353370401440439		5.494276966506732
id-1285_AU24-66_AU9-66	1	1	3	11	12	test_extra	id-1285_AU24-66_AU9-66	valence	-0.6168604472725784		1.7772214241504116
id-1285_AU24-66_AU9-66	1	1	3	11	12	test_extra	id-1285_AU24-66_AU9-66	arousal	-0.5733812968040267		1.7772214241504116
id-1260_AU22-100_AU25-100_AU26-100	1	1	3	11	13	test	id-1260_AU22-100_AU25-100_AU26-100	valence	-0.26902724352416424		2.427157234531478
id-1260_AU22-100_AU25-100_AU26-100	1	1	3	11	13	test	id-1260_AU22-100_AU25-100_AU26-100	arousal	-0.4483787392069404		2.427157234531478
id-1294_AU13-66_AU15-33_AU24-100_AU4-66	1	1	3	11	14	test_extra	id-1294_AU13-66_AU15-33_AU24-100_AU4-66	valence	-0.4837055489626387		1.085255827249057
id-1294_AU13-66_AU15-33_AU24-100_AU4-66	1	1	3	11	14	test_extra	id-1294_AU13-66_AU15-33_AU24-100_AU4-66	arousal	0.4809881020583541		1.085255827249057
id-1361_AU13-66_AU6-33	1	1	3	11	15	train	id-1361_AU13-66_AU6-33	valence	0.26902724352416424		0.911633549572798
id-1361_AU13-66_AU6-33	1	1	3	11	15	train	id-1361_AU13-66_AU6-33	arousal	0.13587234521422434		0.911633549572798
id-1347_AU11-100_AU16Open-100_AU22-100_AU24-33	1	1	3	11	16	train	id-1347_AU11-100_AU16Open-100_AU22-100_AU24-33	valence	0.23913532757703485		3.252212225097537
id-1347_AU11-100_AU16Open-100_AU22-100_AU24-33	1	1	3	11	16	train	id-1347_AU11-100_AU16Open-100_AU22-100_AU24-33	arousal	-0.725558323443958		3.252212225097537
id-1341_AU14-33_AU4-100_AU7-66	1	1	3	11	17	test_extra	id-1341_AU14-33_AU4-100_AU7-66	valence	0.0842408540328191		0.8854333787821815
id-1341_AU14-33_AU4-100_AU7-66	1	1	3	11	17	test_extra	id-1341_AU14-33_AU4-100_AU7-66	arousal	-0.7636025801039408		0.8854333787821815
id-1270_AU22-66_AU26-100	1	1	3	11	18	test_extra	id-1270_AU22-66_AU26-100	valence	-0.5407719339526129		4.15263787184449
id-1270_AU22-66_AU26-100	1	1	3	11	18	test_extra	id-1270_AU22-66_AU26-100	arousal	0.22283064615132792		4.15263787184449
id-1323_AU12-66_AU16Open-33_AU7-66_AU9-100	1	1	3	11	19	test	id-1323_AU12-66_AU16Open-33_AU7-66_AU9-100	valence	0.3288110754184229		1.7687486359900504
id-1323_AU12-66_AU16Open-33_AU7-66_AU9-100	1	1	3	11	19	test	id-1323_AU12-66_AU16Open-33_AU7-66_AU9-100	arousal	0.21739575234275896		1.7687486359900504
id-1355_AU24-66_AU25-100_AU43-33	1	1	3	11	20	train	id-1355_AU24-66_AU25-100_AU43-33	valence	0.0842408540328191		1.427133086073809
id-1355_AU24-66_AU25-100_AU43-33	1	1	3	11	20	train	id-1355_AU24-66_AU25-100_AU43-33	arousal	0.12228511069280193		1.427133086073809
id-1273_AU13-33_AU4-100_AU9-100	1	1	3	11	21	train	id-1273_AU13-33_AU4-100_AU9-100	valence	0.19565617710848307		0.7521360065275076
id-1273_AU13-33_AU4-100_AU9-100	1	1	3	11	21	train	id-1273_AU13-33_AU4-100_AU9-100	arousal	-0.5679464029954577		0.7521360065275076
id-1309_AU17-100_AU20-100_AU6-100	1	1	3	11	22	test_extra	id-1309_AU17-100_AU20-100_AU6-100	valence	-0.03260936285141384		4.435948782329434
id-1309_AU17-100_AU20-100_AU6-100	1	1	3	11	22	test_extra	id-1309_AU17-100_AU20-100_AU6-100	arousal	-0.5434893808568974		4.435948782329434
id-1347_AU10Open-33	1	1	3	11	23	train	id-1347_AU10Open-33	valence	-0.4728357613455008		3.435645115476292
id-1347_AU10Open-33	1	1	3	11	23	train	id-1347_AU10Open-33	arousal	-0.7717549208167943		3.435645115476292
id-1347_AU22-100_AU6-100	1	1	3	11	24	train	id-1347_AU22-100_AU6-100	valence	-0.11685021688423293		2.1771123334929143
id-1347_AU22-100_AU6-100	1	1	3	11	24	train	id-1347_AU22-100_AU6-100	arousal	-0.402182141834104		2.1771123334929143
id-1339_AU10Open-33_AU13-66_AU20-33_AU43-100	1	1	3	11	25	train	id-1339_AU10Open-33_AU13-66_AU20-33_AU43-100	valence	0.14674213283136228		2.1522560243611224
id-1339_AU10Open-33_AU13-66_AU20-33_AU43-100	1	1	3	11	25	train	id-1339_AU10Open-33_AU13-66_AU20-33_AU43-100	arousal	0.26902724352416424		2.1522560243611224
id-1273_AU1-33_AU13-33_AU26-33	1	1	3	11	26	test	id-1273_AU1-33_AU13-33_AU26-33	valence	0.4483787392069404		1.1601160454119963
id-1273_AU1-33_AU13-33_AU26-33	1	1	3	11	26	test	id-1273_AU1-33_AU13-33_AU26-33	arousal	0.4755532082497852		1.1601160454119963
id-1310_AU13-66	1	1	3	11	27	test_extra	id-1310_AU13-66	valence	-0.6549047039325613		1.5854549010964547
id-1310_AU13-66	1	1	3	11	27	test_extra	id-1310_AU13-66	arousal	0.12228511069280193		1.5854549010964547
id-1354_AU14-100_AU2-100_AU20-100_AU4-66	1	1	3	11	28	test_extra	id-1354_AU14-100_AU2-100_AU20-100_AU4-66	valence	-0.30163660637557804		6.3443980559277415
id-1354_AU14-100_AU2-100_AU20-100_AU4-66	1	1	3	11	28	test_extra	id-1354_AU14-100_AU2-100_AU20-100_AU4-66	arousal	-0.8532783279453289		6.3443980559277415
id-1363_AU1-33_AU15-100_AU2-66_AU22-66_AU5-100	1	1	3	11	29	test	id-1363_AU1-33_AU15-100_AU2-66_AU22-66_AU5-100	valence	0.5135974649097681		0.8770659382680606
id-1363_AU1-33_AU15-100_AU2-66_AU22-66_AU5-100	1	1	3	11	29	test	id-1363_AU1-33_AU15-100_AU2-66_AU22-66_AU5-100	arousal	-0.6875140667839752		0.8770659382680606
id-1344_AU11-100_AU13-33_AU15-100_AU25-33	1	1	3	11	30	train	id-1344_AU11-100_AU13-33_AU15-100_AU25-33	valence	-0.11956766378851742		2.5687486963597617
id-1344_AU11-100_AU13-33_AU15-100_AU25-33	1	1	3	11	30	train	id-1344_AU11-100_AU13-33_AU15-100_AU25-33	arousal	-0.7092536420182511		2.5687486963597617
id-1361_AU10Open-33_AU11-100_AU13-66_AU17-100_AU7-66	1	1	3	11	31	test_extra	id-1361_AU10Open-33_AU11-100_AU13-66_AU17-100_AU7-66	valence	0.3315285223227074		0.9603068785963842
id-1361_AU10Open-33_AU11-100_AU13-66_AU17-100_AU7-66	1	1	3	11	31	test_extra	id-1361_AU10Open-33_AU11-100_AU13-66_AU17-100_AU7-66	arousal	0.3885949073126817		0.9603068785963842
id-1293_AU10Open-100_AU11-33_AU14-33_AU22-33_AU27i-33	1	1	3	11	32	train	id-1293_AU10Open-100_AU11-33_AU14-33_AU22-33_AU27i-33	valence	-0.6331651286982856		1.7535091481895506
id-1293_AU10Open-100_AU11-33_AU14-33_AU22-33_AU27i-33	1	1	3	11	32	train	id-1293_AU10Open-100_AU11-33_AU14-33_AU22-33_AU27i-33	arousal	0.4674008675369317		1.7535091481895506
id-1378_AU10Open-66_AU22-66_AU25-100_AU6-33	1	1	3	11	33	test_extra	id-1378_AU10Open-66_AU22-66_AU25-100_AU6-33	valence	0.03532680975569833		2.510477562913365
id-1378_AU10Open-66_AU22-66_AU25-100_AU6-33	1	1	3	11	33	test_extra	id-1378_AU10Open-66_AU22-66_AU25-100_AU6-33	arousal	0.4701183144412162		2.510477562913365
id-1378_AU1-66_AU20-66_AU7-33	1	1	3	11	34	test	id-1378_AU1-66_AU20-66_AU7-33	valence	0.3206587347055695		1.7854388423711498
id-1378_AU1-66_AU20-66_AU7-33	1	1	3	11	34	test	id-1378_AU1-66_AU20-66_AU7-33	arousal	0.201091070917052		1.7854388423711498
id-1345_AU26-66_AU27i-100_AU9-100	1	1	3	11	35	train	id-1345_AU26-66_AU27i-100_AU9-100	valence	-0.4429438453983714		1.9521443981157065
id-1345_AU26-66_AU27i-100_AU9-100	1	1	3	11	35	train	id-1345_AU26-66_AU27i-100_AU9-100	arousal	-0.5081625711011989		1.9521443981157065
id-1310_AU27i-100_AU5-33_AU7-100	1	1	3	11	36	train	id-1310_AU27i-100_AU5-33_AU7-100	valence	-0.4266391639726645		1.2270691530338809
id-1310_AU27i-100_AU5-33_AU7-100	1	1	3	11	36	train	id-1310_AU27i-100_AU5-33_AU7-100	arousal	-0.2608749028113107		1.2270691530338809
id-1373_AU15-33_AU16Open-33_AU2-33_AU4-100	1	1	3	12	1	test_extra	id-1373_AU15-33_AU16Open-33_AU2-33_AU4-100	emotion	Verrassing	0.2337530254365364	2.1698176882018743
id-1344_AU12-66_AU22-66_AU26-100_AU27i-33	1	1	3	12	2	train	id-1344_AU12-66_AU22-66_AU26-100_AU27i-33	emotion	Walging	0.4796270757876968	2.6198770179435087
id-1378_AU14-100_AU22-33_AU4-33	1	1	3	12	3	test_extra	id-1378_AU14-100_AU22-33_AU4-33	emotion	Blij	0.2717717278600491	1.5115084001918149
id-1285_AU16Open-33_AU5-33	1	1	3	12	4	test	id-1285_AU16Open-33_AU5-33	emotion	Verrassing	0.3915768972389483	1.0031202825612129
id-1363_AU13-100_AU20-66_AU22-66_AU5-66	1	1	3	12	5	test_extra	id-1363_AU13-100_AU20-66_AU22-66_AU5-66	emotion	Boos	0.4953987459311218	2.12808975740154
id-1264_AU10Open-33_AU12-66	1	1	3	12	6	test_extra	id-1264_AU10Open-33_AU12-66	emotion	Blij	0.27102603501590306	2.0365281641952606
id-1279_AU1-100_AU13-66_AU22-100_AU27i-100	1	1	3	12	7	test_extra	id-1279_AU1-100_AU13-66_AU22-100_AU27i-100	emotion	Verrassing	0.3924764201618847	1.5781889320987832
id-1342_AU22-33	1	1	3	12	8	test_extra	id-1342_AU22-33	emotion	Geen van allen	0.0	3.070103877609654
id-1297_AU14-66_AU25-100	1	1	3	12	9	train	id-1297_AU14-66_AU25-100	emotion	Blij	0.41163419163531617	1.4114094217020463
id-1285_AU12-66_AU20-100	1	1	3	12	10	test_extra	id-1285_AU12-66_AU20-100	emotion	Blij	0.2240080042477592	2.0948352184714167
id-1279_AU22-66_AU25-66_AU5-66	1	1	3	12	11	train	id-1279_AU22-66_AU25-66_AU5-66	emotion	Verrassing	0.15795041045261252	1.5448860962533215
id-1266_AU17-100_AU20-66	1	1	3	12	12	train	id-1266_AU17-100_AU20-66	emotion	Verdrietig	0.3259946242112513	3.37013789674711
id-1323_AU14-66_AU24-100_AU25-66_AU5-100_AU6-66	1	1	3	12	13	test_extra	id-1323_AU14-66_AU24-100_AU25-66_AU5-100_AU6-66	emotion	Geen van allen	0.0	6.855672819794563
id-1323_AU10Open-33_AU11-33	1	1	3	12	14	test_extra	id-1323_AU10Open-33_AU11-33	emotion	Walging	0.2282175271613781	0.9030376042810532
id-1293_AU14-33_AU15-33_AU43-66	1	1	3	12	15	train	id-1293_AU14-33_AU15-33_AU43-66	emotion	Blij	0.13642985660476795	0.7279558542049926
id-1355_AU12-66_AU13-100_AU27i-100_AU5-100	1	1	3	12	16	train	id-1355_AU12-66_AU13-100_AU27i-100_AU5-100	emotion	Bang	0.7088392890840827	1.0280481314985082
id-1370_AU13-33_AU25-33	1	1	3	12	17	train	id-1370_AU13-33_AU25-33	emotion	Blij	0.2879781182404853	1.2613786776983034
id-1279_AU10Open-100_AU24-33	1	1	3	12	18	test_extra	id-1279_AU10Open-100_AU24-33	emotion	Verdrietig	0.15846090010748914	1.6032269583720336
id-1318_AU1-33_AU16Open-33_AU20-100_AU43-66	1	1	3	12	19	test_extra	id-1318_AU1-33_AU16Open-33_AU20-100_AU43-66	emotion	Walging	0.32128996061737025	3.1951162159621163
id-1344_AU10Open-33_AU16Open-100	1	1	3	12	20	test_extra	id-1344_AU10Open-33_AU16Open-100	emotion	Boos	0.3444196878783133	2.169816178922701
id-1344_AU2-33_AU20-100_AU24-100	1	1	3	12	21	test	id-1344_AU2-33_AU20-100_AU24-100	emotion	Boos	0.49228681469014	0.9530067999039602
id-1264_AU22-100_AU24-66_AU25-100_AU9-100	1	1	3	12	22	train	id-1264_AU22-100_AU24-66_AU25-100_AU9-100	emotion	Walging	0.492828080981561	2.544998990291788
id-1293_AU2-66_AU22-33_AU26-66_AU9-66	1	1	3	12	23	test_extra	id-1293_AU2-66_AU22-33_AU26-66_AU9-66	emotion	Walging	0.3224010118902184	1.6281203957569232
id-1269_AU13-33_AU15-100	1	1	3	12	24	train	id-1269_AU13-33_AU15-100	emotion	Boos	0.7133052503981663	0.8697115255454264
id-1269_AU10Open-66_AU20-66_AU26-66_AU43-66	1	1	3	12	25	test	id-1269_AU10Open-66_AU20-66_AU26-66_AU43-66	emotion	Boos	0.4739803662340018	1.2446818304888438
id-1355_AU13-66_AU14-100_AU15-100_AU7-33	1	1	3	12	26	test	id-1355_AU13-66_AU14-100_AU15-100_AU7-33	emotion	Walging	0.29936469377390124	4.403310632776993
id-1358_AU10Open-33_AU22-100_AU6-100	1	1	3	12	27	test_extra	id-1358_AU10Open-33_AU22-100_AU6-100	emotion	Walging	0.32982545887568604	0.5445655254807207
id-1297_AU20-33_AU22-33_AU26-66	1	1	3	12	28	test_extra	id-1297_AU20-33_AU22-33_AU26-66	emotion	Bang	0.14721446226232107	0.6696868337476191
id-1380_AU12-66_AU4-33	1	1	3	12	29	train	id-1380_AU12-66_AU4-33	emotion	Verdrietig	0.4982996487574409	1.0865043025005434
id-1294_AU11-66_AU20-33_AU25-33	1	1	3	12	30	test	id-1294_AU11-66_AU20-33_AU25-33	emotion	Boos	0.15866178215740798	1.6531593275976777
id-1309_AU27i-33_AU4-100_AU43-66	1	1	3	12	31	test_extra	id-1309_AU27i-33_AU4-100_AU43-66	emotion	Verdrietig	0.6670341548988805	0.7945714871311793
id-1280_AU1-66_AU17-100_AU26-33	1	1	3	12	32	train	id-1280_AU1-66_AU17-100_AU26-33	emotion	Bang	0.3638730380769331	2.9700042954082164
id-1361_AU1-66_AU17-66_AU6-66_AU7-100	1	1	3	12	33	test_extra	id-1361_AU1-66_AU17-66_AU6-66_AU7-100	emotion	Verrassing	0.3333255127219659	2.8616791448803265
id-1279_AU12-100_AU15-100_AU26-100	1	1	3	12	34	test_extra	id-1279_AU12-100_AU15-100_AU26-100	emotion	Verrassing	0.7225938145972851	1.4780760682460825
id-1342_AU1-100_AU14-100_AU15-66_AU5-100_AU7-100	1	1	3	12	35	test	id-1342_AU1-100_AU14-100_AU15-66_AU5-100_AU7-100	emotion	Blij	0.36312417652863854	0.7281049709308718
id-1347_AU13-100_AU14-66_AU17-100_AU27i-66_AU7-100	1	1	3	12	36	test	id-1347_AU13-100_AU14-66_AU17-100_AU27i-66_AU7-100	emotion	Walging	0.4727161496222758	2.2782095488437326
id-1295_AU12-33_AU2-66_AU27i-66	1	1	4	13	1	test_extra	id-1295_AU12-33_AU2-66_AU27i-66	emotion	Walging	0.199574489160357	2.04483161129792
id-1345_AU12-66_AU20-100	1	1	4	13	2	test_extra	id-1345_AU12-66_AU20-100	emotion	Blij	0.24613738028943	1.20318874343866
id-1362_AU11-100_AU17-33_AU43-66	1	1	4	13	3	test_extra	id-1362_AU11-100_AU17-33_AU43-66	emotion	Verrassing	0.302138650466013	3.02832282020063
id-1306_AU15-66_AU27i-66_AU43-33	1	1	4	13	4	train	id-1306_AU15-66_AU27i-66_AU43-33	emotion	Walging	0.29206076519780105	2.9617228837723797
id-1260_AU12-33	1	1	4	13	5	test_extra	id-1260_AU12-33	emotion	Verdrietig	0.283121648325545	0.903122123881985
id-1260_AU24-66_AU26-66_AU5-33_AU6-66	1	1	4	13	6	test_extra	id-1260_AU24-66_AU26-66_AU5-33_AU6-66	emotion	Walging	0.455474554598389	1.4280039398199698
id-1373_AU7-66	1	1	4	13	7	test_extra	id-1373_AU7-66	emotion	Boos	0.075050791314069	2.86160096424828
id-1307_AU16Open-100_AU22-100_AU6-100_AU7-33	1	1	4	13	8	test_extra	id-1307_AU16Open-100_AU22-100_AU6-100_AU7-33	emotion	Boos	0.330058214081188	1.0863307354629799
id-1273_AU11-100_AU15-33_AU20-33	1	1	4	13	9	test_extra	id-1273_AU11-100_AU15-33_AU20-33	emotion	Blij	0.19428068978726398	0.9863123524501128
id-1295_AU11-33_AU12-100_AU13-100_AU20-33_AU9-66	1	1	4	13	10	test	id-1295_AU11-33_AU12-100_AU13-100_AU20-33_AU9-66	emotion	Walging	0.2745710893279381	3.4199229603837003
id-1279_AU13-66_AU20-33	1	1	4	13	11	test_extra	id-1279_AU13-66_AU20-33	emotion	Blij	0.16904680405363098	0.9031957766765121
