	rep	session	run	block	trial	trial_type	rating_type	rating	rating_RT
id-1376_gender-F_age-19	1	4	1	1	1	id-1376_gender-F_age-19	attractiveness	0.20750000000000002	2.4090000000000003
id-1310_gender-F_age-28	1	4	1	1	2	id-1310_gender-F_age-28	attractiveness	0.12250000000000005	2.043
id-1367_gender-M_age-20	1	4	1	1	3	id-1367_gender-M_age-20	attractiveness	0.43500000000000005	2.818
id-1280_gender-M_age-18	1	4	1	1	4	id-1280_gender-M_age-18	attractiveness	-0.26	1.068
id-1295_gender-F_age-26	1	4	1	1	5	id-1295_gender-F_age-26	attractiveness	-0.28	3.7760000000000002
id-1358_gender-F_age-32	1	4	1	1	6	id-1358_gender-F_age-32	attractiveness	0.09000000000000008	2.151
id-1366_gender-F_age-24	1	4	1	1	7	id-1366_gender-F_age-24	attractiveness	-0.45500000000000007	1.935
id-1342_gender-M_age-19	1	4	1	1	8	id-1342_gender-M_age-19	attractiveness	-0.685	2.051
id-1291_gender-F_age-24	1	4	1	1	9	id-1291_gender-F_age-24	attractiveness	-0.36750000000000005	1.401
id-1362_gender-F_age-24	1	4	1	1	10	id-1362_gender-F_age-24	attractiveness	-0.06999999999999995	1.693
id-1370_gender-M_age-19	1	4	1	1	11	id-1370_gender-M_age-19	attractiveness	0.15749999999999997	2.293
id-1345_gender-M_age-18	1	4	1	1	12	id-1345_gender-M_age-18	attractiveness	-0.20750000000000002	1.109
id-1355_gender-F_age-19	1	4	1	1	13	id-1355_gender-F_age-19	attractiveness	-0.5825	1.568
id-1373_gender-F_age-30	1	4	1	1	14	id-1373_gender-F_age-30	attractiveness	-0.16749999999999998	1.318
id-1294_gender-F_age-26	1	4	1	1	15	id-1294_gender-F_age-26	attractiveness	0.03750000000000009	0.943
id-1378_gender-F_age-19	1	4	1	1	16	id-1378_gender-F_age-19	attractiveness	-0.18000000000000005	2.401
id-1273_gender-F_age-20	1	4	1	1	17	id-1273_gender-F_age-20	attractiveness	0.3374999999999999	3.793
id-1306_gender-F_age-21	1	4	1	1	18	id-1306_gender-F_age-21	attractiveness	0.09499999999999997	1.734
id-1344_gender-M_age-25	1	4	1	1	19	id-1344_gender-M_age-25	attractiveness	-0.3474999999999999	2.136
id-1318_gender-M_age-35	1	4	1	1	20	id-1318_gender-M_age-35	attractiveness	-0.1875	1.71
id-1360_gender-F_age-20	1	4	1	1	21	id-1360_gender-F_age-20	attractiveness	-0.3474999999999999	1.9680000000000002
id-1377_gender-M_age-20	1	4	1	1	22	id-1377_gender-M_age-20	attractiveness	0.09499999999999997	0.993
id-1341_gender-M_age-19	1	4	1	1	23	id-1341_gender-M_age-19	attractiveness	0.2875000000000001	0.909
id-1323_gender-F_age-23	1	4	1	1	24	id-1323_gender-F_age-23	attractiveness	-0.3474999999999999	1.176
id-1307_gender-F_age-22	1	4	1	1	25	id-1307_gender-F_age-22	attractiveness	-0.7325	2.26
id-1269_gender-F_age-23	1	4	1	1	26	id-1269_gender-F_age-23	attractiveness	-0.07999999999999996	3.385
id-1266_gender-M_age-21	1	4	1	1	27	id-1266_gender-M_age-21	attractiveness	0.3600000000000001	1.66
id-1347_gender-F_age-27	1	4	1	1	28	id-1347_gender-F_age-27	attractiveness	-0.5375	1.66
id-1296_gender-F_age-23	1	4	1	1	29	id-1296_gender-F_age-23	attractiveness	0.02750000000000008	0.768
id-1356_gender-F_age-20	1	4	1	1	30	id-1356_gender-F_age-20	attractiveness	-0.14	0.893
id-1289_gender-F_age-20	1	4	1	1	31	id-1289_gender-F_age-20	attractiveness	-0.16749999999999998	0.8270000000000001
id-1363_gender-M_age-19	1	4	1	1	32	id-1363_gender-M_age-19	attractiveness	-0.4025000000000001	1.21
id-1380_gender-F_age-21	1	4	1	1	33	id-1380_gender-F_age-21	attractiveness	-0.3275	1.651
id-1264_gender-F_age-26	1	4	1	1	34	id-1264_gender-F_age-26	attractiveness	-0.7825	1.726
id-1309_gender-M_age-22	1	4	1	1	35	id-1309_gender-M_age-22	attractiveness	-0.475	2.568
id-1311_gender-F_age-22	1	4	1	1	36	id-1311_gender-F_age-22	attractiveness	-0.10499999999999998	3.1430000000000002
id-1285_gender-F_age-19	1	4	1	1	37	id-1285_gender-F_age-19	attractiveness	-0.37250000000000005	0.768
id-1315_gender-M_age-16	1	4	1	1	38	id-1315_gender-M_age-16	attractiveness	-0.36250000000000004	0.851
id-1339_gender-F_age-30	1	4	1	1	39	id-1339_gender-F_age-30	attractiveness	-0.18999999999999995	0.851
id-1361_gender-F_age-19	1	4	1	1	40	id-1361_gender-F_age-19	attractiveness	0.09499999999999997	2.235
id-1335_gender-M_age-23	1	4	1	1	41	id-1335_gender-M_age-23	attractiveness	-0.14249999999999996	0.7340000000000001
id-1302_gender-F_age-30	1	4	1	1	42	id-1302_gender-F_age-30	attractiveness	-0.2975	1.018
id-1260_gender-F_age-22	1	4	1	1	43	id-1260_gender-F_age-22	attractiveness	-0.6425000000000001	2.7680000000000002
id-1279_gender-F_age-19	1	4	1	1	44	id-1279_gender-F_age-19	attractiveness	-0.10999999999999999	1.993
id-1290_gender-F_age-23	1	4	1	1	45	id-1290_gender-F_age-23	attractiveness	0.135	0.884
id-1274_gender-F_age-33	1	4	1	1	46	id-1274_gender-F_age-33	attractiveness	-0.38249999999999995	0.7929999999999999
id-1293_gender-F_age-31	1	4	1	1	47	id-1293_gender-F_age-31	attractiveness	-0.35250000000000004	1.76
id-1270_gender-F_age-30	1	4	1	1	48	id-1270_gender-F_age-30	attractiveness	-0.10999999999999999	1.026
id-1297_gender-F_age-22	1	4	1	1	49	id-1297_gender-F_age-22	attractiveness	-0.28	1.185
id-1354_gender-F_age-23	1	4	1	1	50	id-1354_gender-F_age-23	attractiveness	-0.12250000000000005	0.743
id-1335_gender-M_age-23	1	4	1	3	1	id-1335_gender-M_age-23	dominance	-0.25749999999999995	1.5930000000000002
id-1341_gender-M_age-19	1	4	1	3	2	id-1341_gender-M_age-19	dominance	0.09499999999999997	0.6679999999999999
id-1318_gender-M_age-35	1	4	1	3	3	id-1318_gender-M_age-35	dominance	0.24249999999999994	0.693
id-1289_gender-F_age-20	1	4	1	3	4	id-1289_gender-F_age-20	dominance	-0.26249999999999996	0.843
id-1302_gender-F_age-30	1	4	1	3	5	id-1302_gender-F_age-30	dominance	-0.16500000000000004	0.8009999999999999
id-1291_gender-F_age-24	1	4	1	3	6	id-1291_gender-F_age-24	dominance	-0.07750000000000001	1.268
id-1280_gender-M_age-18	1	4	1	3	7	id-1280_gender-M_age-18	dominance	-0.6125	1.851
id-1279_gender-F_age-19	1	4	1	3	8	id-1279_gender-F_age-19	dominance	-0.895	1.501
id-1270_gender-F_age-30	1	4	1	3	9	id-1270_gender-F_age-30	dominance	0.09749999999999992	0.7929999999999999
id-1344_gender-M_age-25	1	4	1	3	10	id-1344_gender-M_age-25	dominance	0.3474999999999999	1.8259999999999998
id-1370_gender-M_age-19	1	4	1	3	11	id-1370_gender-M_age-19	dominance	-0.18000000000000005	6.294
id-1342_gender-M_age-19	1	4	1	3	12	id-1342_gender-M_age-19	dominance	0.385	1.851
id-1355_gender-F_age-19	1	4	1	3	13	id-1355_gender-F_age-19	dominance	-0.82	2.1430000000000002
id-1323_gender-F_age-23	1	4	1	3	14	id-1323_gender-F_age-23	dominance	-0.5225	2.426
id-1306_gender-F_age-21	1	4	1	3	15	id-1306_gender-F_age-21	dominance	0.11250000000000004	3.0260000000000002
id-1362_gender-F_age-24	1	4	1	3	16	id-1362_gender-F_age-24	dominance	0.2925	2.51
id-1297_gender-F_age-22	1	4	1	3	17	id-1297_gender-F_age-22	dominance	0.25750000000000006	1.01
id-1376_gender-F_age-19	1	4	1	3	18	id-1376_gender-F_age-19	dominance	-0.11250000000000004	2.785
id-1315_gender-M_age-16	1	4	1	3	19	id-1315_gender-M_age-16	dominance	0.5375000000000001	4.293
id-1363_gender-M_age-19	1	4	1	3	20	id-1363_gender-M_age-19	dominance	-0.09499999999999997	1.3259999999999998
id-1273_gender-F_age-20	1	4	1	3	21	id-1273_gender-F_age-20	dominance	0.135	1.41
id-1347_gender-F_age-27	1	4	1	3	22	id-1347_gender-F_age-27	dominance	-0.6325	1.176
id-1290_gender-F_age-23	1	4	1	3	23	id-1290_gender-F_age-23	dominance	0.43500000000000005	3.635
id-1264_gender-F_age-26	1	4	1	3	24	id-1264_gender-F_age-26	dominance	-0.7050000000000001	1.676
id-1345_gender-M_age-18	1	4	1	3	25	id-1345_gender-M_age-18	dominance	0.5625	4.168
id-1293_gender-F_age-31	1	4	1	3	26	id-1293_gender-F_age-31	dominance	-0.5475	1.2429999999999999
id-1377_gender-M_age-20	1	4	1	3	27	id-1377_gender-M_age-20	dominance	0.18999999999999995	1.11
id-1378_gender-F_age-19	1	4	1	3	28	id-1378_gender-F_age-19	dominance	-0.1775	0.7759999999999999
id-1296_gender-F_age-23	1	4	1	3	29	id-1296_gender-F_age-23	dominance	-0.385	1.36
id-1361_gender-F_age-19	1	4	1	3	30	id-1361_gender-F_age-19	dominance	-0.07250000000000001	1.001
id-1269_gender-F_age-23	1	4	1	3	31	id-1269_gender-F_age-23	dominance	-0.13749999999999996	2.826
id-1285_gender-F_age-19	1	4	1	3	32	id-1285_gender-F_age-19	dominance	-0.5125	1.318
id-1366_gender-F_age-24	1	4	1	3	33	id-1366_gender-F_age-24	dominance	0.09499999999999997	1.301
id-1356_gender-F_age-20	1	4	1	3	34	id-1356_gender-F_age-20	dominance	-0.08250000000000002	1.4180000000000001
id-1354_gender-F_age-23	1	4	1	3	35	id-1354_gender-F_age-23	dominance	0.13250000000000006	4.335
id-1339_gender-F_age-30	1	4	1	3	36	id-1339_gender-F_age-30	dominance	-0.68	2.6260000000000003
id-1373_gender-F_age-30	1	4	1	3	37	id-1373_gender-F_age-30	dominance	-0.10499999999999998	1.768
id-1294_gender-F_age-26	1	4	1	3	38	id-1294_gender-F_age-26	dominance	-0.5475	0.976
id-1309_gender-M_age-22	1	4	1	3	39	id-1309_gender-M_age-22	dominance	0.47750000000000004	1.818
id-1360_gender-F_age-20	1	4	1	3	40	id-1360_gender-F_age-20	dominance	-0.2925	0.943
id-1310_gender-F_age-28	1	4	1	3	41	id-1310_gender-F_age-28	dominance	0.6175000000000002	2.5180000000000002
id-1266_gender-M_age-21	1	4	1	3	42	id-1266_gender-M_age-21	dominance	0.4225000000000001	1.21
id-1307_gender-F_age-22	1	4	1	3	43	id-1307_gender-F_age-22	dominance	-0.735	0.9259999999999999
id-1367_gender-M_age-20	1	4	1	3	44	id-1367_gender-M_age-20	dominance	0.52	0.843
id-1260_gender-F_age-22	1	4	1	3	45	id-1260_gender-F_age-22	dominance	-0.6125	0.884
id-1311_gender-F_age-22	1	4	1	3	46	id-1311_gender-F_age-22	dominance	-0.49249999999999994	1.026
id-1380_gender-F_age-21	1	4	1	3	47	id-1380_gender-F_age-21	dominance	-0.18999999999999995	0.909
id-1274_gender-F_age-33	1	4	1	3	48	id-1274_gender-F_age-33	dominance	0.71	1.143
id-1295_gender-F_age-26	1	4	1	3	49	id-1295_gender-F_age-26	dominance	0.5900000000000001	1.91
id-1358_gender-F_age-32	1	4	1	3	50	id-1358_gender-F_age-32	dominance	0.26	2.06
id-1370_gender-M_age-19	1	4	1	5	1	id-1370_gender-M_age-19	trustworthiness	0.665	1.885
id-1358_gender-F_age-32	1	4	1	5	2	id-1358_gender-F_age-32	trustworthiness	-0.1725	0.693
id-1315_gender-M_age-16	1	4	1	5	3	id-1315_gender-M_age-16	trustworthiness	-0.43000000000000005	1.385
id-1373_gender-F_age-30	1	4	1	5	4	id-1373_gender-F_age-30	trustworthiness	0.09000000000000008	0.6679999999999999
id-1311_gender-F_age-22	1	4	1	5	5	id-1311_gender-F_age-22	trustworthiness	0.6200000000000001	0.96
id-1377_gender-M_age-20	1	4	1	5	6	id-1377_gender-M_age-20	trustworthiness	0.19999999999999996	0.6679999999999999
id-1366_gender-F_age-24	1	4	1	5	7	id-1366_gender-F_age-24	trustworthiness	-0.3175	0.726
id-1323_gender-F_age-23	1	4	1	5	8	id-1323_gender-F_age-23	trustworthiness	0.13250000000000006	0.9179999999999999
id-1339_gender-F_age-30	1	4	1	5	9	id-1339_gender-F_age-30	trustworthiness	0.5150000000000001	1.151
id-1378_gender-F_age-19	1	4	1	5	10	id-1378_gender-F_age-19	trustworthiness	0.6475	0.943
id-1306_gender-F_age-21	1	4	1	5	11	id-1306_gender-F_age-21	trustworthiness	0.12250000000000005	0.684
id-1342_gender-M_age-19	1	4	1	5	12	id-1342_gender-M_age-19	trustworthiness	-0.81	1.2009999999999998
id-1362_gender-F_age-24	1	4	1	5	13	id-1362_gender-F_age-24	trustworthiness	0.16749999999999998	0.884
id-1280_gender-M_age-18	1	4	1	5	14	id-1280_gender-M_age-18	trustworthiness	-0.32499999999999996	0.934
id-1361_gender-F_age-19	1	4	1	5	15	id-1361_gender-F_age-19	trustworthiness	0.1399999999999999	0.6509999999999999
id-1354_gender-F_age-23	1	4	1	5	16	id-1354_gender-F_age-23	trustworthiness	-0.37749999999999995	0.7509999999999999
id-1344_gender-M_age-25	1	4	1	5	17	id-1344_gender-M_age-25	trustworthiness	0.13250000000000006	0.66
id-1269_gender-F_age-23	1	4	1	5	18	id-1269_gender-F_age-23	trustworthiness	0.3125	0.743
id-1294_gender-F_age-26	1	4	1	5	19	id-1294_gender-F_age-26	trustworthiness	0.09000000000000008	0.818
id-1295_gender-F_age-26	1	4	1	5	20	id-1295_gender-F_age-26	trustworthiness	0.14500000000000002	2.41
id-1380_gender-F_age-21	1	4	1	5	21	id-1380_gender-F_age-21	trustworthiness	0.12250000000000005	1.635
id-1309_gender-M_age-22	1	4	1	5	22	id-1309_gender-M_age-22	trustworthiness	-0.04249999999999998	1.043
id-1341_gender-M_age-19	1	4	1	5	23	id-1341_gender-M_age-19	trustworthiness	0.4675	0.8759999999999999
id-1293_gender-F_age-31	1	4	1	5	24	id-1293_gender-F_age-31	trustworthiness	-0.06999999999999995	2.0180000000000002
id-1270_gender-F_age-30	1	4	1	5	25	id-1270_gender-F_age-30	trustworthiness	0.27	0.701
id-1347_gender-F_age-27	1	4	1	5	26	id-1347_gender-F_age-27	trustworthiness	-0.22750000000000004	0.851
id-1289_gender-F_age-20	1	4	1	5	27	id-1289_gender-F_age-20	trustworthiness	-0.31000000000000005	0.7090000000000001
id-1297_gender-F_age-22	1	4	1	5	28	id-1297_gender-F_age-22	trustworthiness	-0.10999999999999999	1.8090000000000002
id-1273_gender-F_age-20	1	4	1	5	29	id-1273_gender-F_age-20	trustworthiness	0.6575	1.651
id-1345_gender-M_age-18	1	4	1	5	30	id-1345_gender-M_age-18	trustworthiness	-0.2025	1.526
id-1266_gender-M_age-21	1	4	1	5	31	id-1266_gender-M_age-21	trustworthiness	-0.21250000000000002	1.31
id-1296_gender-F_age-23	1	4	1	5	32	id-1296_gender-F_age-23	trustworthiness	0.1625000000000001	0.985
id-1285_gender-F_age-19	1	4	1	5	33	id-1285_gender-F_age-19	trustworthiness	-0.1725	0.643
id-1291_gender-F_age-24	1	4	1	5	34	id-1291_gender-F_age-24	trustworthiness	-0.08250000000000002	0.96
id-1290_gender-F_age-23	1	4	1	5	35	id-1290_gender-F_age-23	trustworthiness	-0.31499999999999995	2.201
id-1260_gender-F_age-22	1	4	1	5	36	id-1260_gender-F_age-22	trustworthiness	0.08250000000000002	0.835
id-1335_gender-M_age-23	1	4	1	5	37	id-1335_gender-M_age-23	trustworthiness	0.48249999999999993	1.401
id-1367_gender-M_age-20	1	4	1	5	38	id-1367_gender-M_age-20	trustworthiness	0.7250000000000001	1.068
id-1310_gender-F_age-28	1	4	1	5	39	id-1310_gender-F_age-28	trustworthiness	-0.23750000000000004	3.843
id-1363_gender-M_age-19	1	4	1	5	40	id-1363_gender-M_age-19	trustworthiness	0.1399999999999999	3.185
id-1376_gender-F_age-19	1	4	1	5	41	id-1376_gender-F_age-19	trustworthiness	0.4025000000000001	1.001
id-1356_gender-F_age-20	1	4	1	5	42	id-1356_gender-F_age-20	trustworthiness	0.050000000000000044	1.426
id-1264_gender-F_age-26	1	4	1	5	43	id-1264_gender-F_age-26	trustworthiness	-0.10499999999999998	1.4180000000000001
id-1302_gender-F_age-30	1	4	1	5	44	id-1302_gender-F_age-30	trustworthiness	-0.35250000000000004	0.9179999999999999
id-1279_gender-F_age-19	1	4	1	5	45	id-1279_gender-F_age-19	trustworthiness	0.09250000000000003	1.085
id-1274_gender-F_age-33	1	4	1	5	46	id-1274_gender-F_age-33	trustworthiness	-0.5800000000000001	1.351
id-1360_gender-F_age-20	1	4	1	5	47	id-1360_gender-F_age-20	trustworthiness	0.22249999999999992	0.968
id-1355_gender-F_age-19	1	4	1	5	48	id-1355_gender-F_age-19	trustworthiness	0.0625	0.86
id-1307_gender-F_age-22	1	4	1	5	49	id-1307_gender-F_age-22	trustworthiness	0.6499999999999999	1.218
id-1318_gender-M_age-35	1	4	1	5	50	id-1318_gender-M_age-35	trustworthiness	-0.405	1.7009999999999998
id-1367_gender-M_age-20	1	4	1	7	1	id-1367_gender-M_age-20	arousal	0.5475553208249785	4.152458236512757
id-1367_gender-M_age-20	1	4	1	7	1	id-1367_gender-M_age-20	valence	0.2798970311413021	4.152458236512757
id-1295_gender-F_age-26	1	4	1	7	2	id-1295_gender-F_age-26	arousal	0.46059701988787494	1.0603087035779026
id-1295_gender-F_age-26	1	4	1	7	2	id-1295_gender-F_age-26	valence	-0.3315285223227074	1.0603087035779026
id-1273_gender-F_age-20	1	4	1	7	3	id-1273_gender-F_age-20	arousal	0.5706536195113967	1.1352743974784971
id-1273_gender-F_age-20	1	4	1	7	3	id-1273_gender-F_age-20	valence	0.7663200270082253	1.1352743974784971
id-1266_gender-M_age-21	1	4	1	7	4	id-1266_gender-M_age-21	arousal	0.3165723339607971	3.052272050837928
id-1266_gender-M_age-21	1	4	1	7	4	id-1266_gender-M_age-21	valence	0.23370043376846586	3.052272050837928
id-1307_gender-F_age-22	1	4	1	7	5	id-1307_gender-F_age-22	arousal	0.5461965973728363	3.3438606118907046
id-1307_gender-F_age-22	1	4	1	7	5	id-1307_gender-F_age-22	valence	0.524467252526906	3.3438606118907046
id-1360_gender-F_age-20	1	4	1	7	6	id-1360_gender-F_age-20	arousal	0.44157489155788354	3.460707819496747
id-1360_gender-F_age-20	1	4	1	7	6	id-1360_gender-F_age-20	valence	0.100545535458526	3.460707819496747
id-1280_gender-M_age-18	1	4	1	7	7	id-1280_gender-M_age-18	arousal	0.5706536195113967	1.7354376419862092
id-1280_gender-M_age-18	1	4	1	7	7	id-1280_gender-M_age-18	valence	-0.6549047039325613	1.7354376419862092
id-1342_gender-M_age-19	1	4	1	7	8	id-1342_gender-M_age-19	arousal	0.8029953298277204	2.243919836320856
id-1342_gender-M_age-19	1	4	1	7	8	id-1342_gender-M_age-19	valence	-0.6820791729754062	2.243919836320856
id-1279_gender-F_age-19	1	4	1	7	9	id-1279_gender-F_age-19	arousal	0.5570663849899742	1.635459134238772
id-1279_gender-F_age-19	1	4	1	7	9	id-1279_gender-F_age-19	valence	-0.105980429267095	1.635459134238772
id-1293_gender-F_age-31	1	4	1	7	10	id-1293_gender-F_age-31	arousal	0.5692948960592544	1.8023150655244533
id-1293_gender-F_age-31	1	4	1	7	10	id-1293_gender-F_age-31	valence	-0.3967472480255351	1.8023150655244533
id-1309_gender-M_age-22	1	4	1	7	11	id-1309_gender-M_age-22	arousal	0.5652187257028277	1.0602700658237154
id-1309_gender-M_age-22	1	4	1	7	11	id-1309_gender-M_age-22	valence	-0.09782808855424154	1.0602700658237154
id-1361_gender-F_age-19	1	4	1	7	12	id-1361_gender-F_age-19	arousal	0.25950594897082296	1.4607286476602894
id-1361_gender-F_age-19	1	4	1	7	12	id-1361_gender-F_age-19	valence	0.09782808855424154	1.4607286476602894
id-1377_gender-M_age-20	1	4	1	7	13	id-1377_gender-M_age-20	arousal	0.31113744015222816	1.6270862122983092
id-1377_gender-M_age-20	1	4	1	7	13	id-1377_gender-M_age-20	valence	0.10869787617137948	1.6270862122983092
id-1345_gender-M_age-18	1	4	1	7	14	id-1345_gender-M_age-18	arousal	0.33695318574293076	2.668975272441457
id-1345_gender-M_age-18	1	4	1	7	14	id-1345_gender-M_age-18	valence	-0.09782808855424154	2.668975272441457
id-1362_gender-F_age-24	1	4	1	7	15	id-1362_gender-F_age-24	arousal	0.2649408427793919	0.9686650837284104
id-1362_gender-F_age-24	1	4	1	7	15	id-1362_gender-F_age-24	valence	0.1250025575970864	0.9686650837284104
id-1355_gender-F_age-19	1	4	1	7	16	id-1355_gender-F_age-19	arousal	0.35189914371649544	4.54411133468966
id-1355_gender-F_age-19	1	4	1	7	16	id-1355_gender-F_age-19	valence	-0.1250025575970864	4.54411133468966
id-1306_gender-F_age-21	1	4	1	7	17	id-1306_gender-F_age-21	arousal	0.35189914371649544	3.2021641971732606
id-1306_gender-F_age-21	1	4	1	7	17	id-1306_gender-F_age-21	valence	-0.17935149568277614	3.2021641971732606
id-1354_gender-F_age-23	1	4	1	7	18	id-1354_gender-F_age-23	arousal	0.5366855332078406	2.7021394448602223
id-1354_gender-F_age-23	1	4	1	7	18	id-1354_gender-F_age-23	valence	-0.6576221508368458	2.7021394448602223
id-1290_gender-F_age-23	1	4	1	7	19	id-1290_gender-F_age-23	arousal	0.6345136217620821	1.2602611912116115
id-1290_gender-F_age-23	1	4	1	7	19	id-1290_gender-F_age-23	valence	-0.5135974649097681	1.2602611912116115
id-1311_gender-F_age-22	1	4	1	7	20	id-1311_gender-F_age-22	arousal	0.39809574108933177	3.943967710911238
id-1311_gender-F_age-22	1	4	1	7	20	id-1311_gender-F_age-22	valence	-0.11685021688423293	3.943967710911238
id-1347_gender-F_age-27	1	4	1	7	21	id-1347_gender-F_age-27	arousal	0.25678850206653836	0.876966525818716
id-1347_gender-F_age-27	1	4	1	7	21	id-1347_gender-F_age-27	valence	-0.2092434116299055	0.876966525818716
id-1260_gender-F_age-22	1	4	1	7	22	id-1260_gender-F_age-22	arousal	0.3899434003764783	0.6103101826774946
id-1260_gender-F_age-22	1	4	1	7	22	id-1260_gender-F_age-22	valence	-0.15489447354421576	0.6103101826774946
id-1269_gender-F_age-23	1	4	1	7	23	id-1269_gender-F_age-23	arousal	0.43749872120145683	3.2190347081705117
id-1269_gender-F_age-23	1	4	1	7	23	id-1269_gender-F_age-23	valence	0.1657642611613537	3.2190347081705117
id-1373_gender-F_age-30	1	4	1	7	24	id-1373_gender-F_age-30	arousal	0.349181696812211	1.843748622774001
id-1373_gender-F_age-30	1	4	1	7	24	id-1373_gender-F_age-30	valence	-0.0815234071285346	1.843748622774001
id-1378_gender-F_age-19	1	4	1	7	25	id-1378_gender-F_age-19	arousal	0.5842408540328191	0.9104905123167556
id-1378_gender-F_age-19	1	4	1	7	25	id-1378_gender-F_age-19	valence	0.4891404427712077	0.9104905123167556
id-1380_gender-F_age-21	1	4	1	7	26	id-1380_gender-F_age-21	arousal	0.4062480818021852	1.1687730279518291
id-1380_gender-F_age-21	1	4	1	7	26	id-1380_gender-F_age-21	valence	0.0815234071285346	1.1687730279518291
id-1296_gender-F_age-23	1	4	1	7	27	id-1296_gender-F_age-23	arousal	0.40353063489790075	1.4939740197332867
id-1296_gender-F_age-23	1	4	1	7	27	id-1296_gender-F_age-23	valence	-0.09239319474567256	1.4939740197332867
id-1376_gender-F_age-19	1	4	1	7	28	id-1376_gender-F_age-19	arousal	0.2499948848058272	2.6521829425182664
id-1376_gender-F_age-19	1	4	1	7	28	id-1376_gender-F_age-19	valence	0.5217498056226214	2.6521829425182664
id-1294_gender-F_age-26	1	4	1	7	29	id-1294_gender-F_age-26	arousal	0.1752650949380038	1.410350148606085
id-1294_gender-F_age-26	1	4	1	7	29	id-1294_gender-F_age-26	valence	0.5462068277611818	1.410350148606085
id-1358_gender-F_age-32	1	4	1	7	30	id-1358_gender-F_age-32	arousal	0.4089655287064697	1.4520988450312868
id-1358_gender-F_age-32	1	4	1	7	30	id-1358_gender-F_age-32	valence	-0.3722902258869748	1.4520988450312868
id-1297_gender-F_age-22	1	4	1	7	31	id-1297_gender-F_age-22	arousal	0.6263612810492286	2.085491161309619
id-1297_gender-F_age-22	1	4	1	7	31	id-1297_gender-F_age-22	valence	-0.5516417215697509	2.085491161309619
id-1363_gender-M_age-19	1	4	1	7	32	id-1363_gender-M_age-19	arousal	0.544837873920694	1.2519709782172868
id-1363_gender-M_age-19	1	4	1	7	32	id-1363_gender-M_age-19	valence	0.29891915947129355	1.2519709782172868
id-1310_gender-F_age-28	1	4	1	7	33	id-1310_gender-F_age-28	arousal	0.6290787279535132	0.9605490424764866
id-1310_gender-F_age-28	1	4	1	7	33	id-1310_gender-F_age-28	valence	-0.2500051151941728	0.9605490424764866
id-1344_gender-M_age-25	1	4	1	7	34	id-1344_gender-M_age-25	arousal	0.5380442566599828	2.0688035759230843
id-1344_gender-M_age-25	1	4	1	7	34	id-1344_gender-M_age-25	valence	-0.5788161906125957	2.0688035759230843
id-1274_gender-F_age-33	1	4	1	7	35	id-1274_gender-F_age-33	arousal	0.7921255422105824	3.552337855762744
id-1274_gender-F_age-33	1	4	1	7	35	id-1274_gender-F_age-33	valence	-0.6059906596554406	3.552337855762744
id-1366_gender-F_age-24	1	4	1	7	36	id-1366_gender-F_age-24	arousal	0.40760680525432746	3.677172815201629
id-1366_gender-F_age-24	1	4	1	7	36	id-1366_gender-F_age-24	valence	-0.105980429267095	3.677172815201629
id-1291_gender-F_age-24	1	4	1	7	37	id-1291_gender-F_age-24	arousal	0.38450850656790936	2.969199371415016
id-1291_gender-F_age-24	1	4	1	7	37	id-1291_gender-F_age-24	valence	-0.06793617260711217	2.969199371415016
id-1264_gender-F_age-26	1	4	1	7	38	id-1264_gender-F_age-26	arousal	0.45244467917502146	1.4103051718448114
id-1264_gender-F_age-26	1	4	1	7	38	id-1264_gender-F_age-26	valence	-0.10869787617137948	1.4103051718448114
id-1341_gender-M_age-19	1	4	1	7	39	id-1341_gender-M_age-19	arousal	0.44700978536645253	0.8937265569948067
id-1341_gender-M_age-19	1	4	1	7	39	id-1341_gender-M_age-19	valence	0.04619659737283628	0.8937265569948067
id-1285_gender-F_age-19	1	4	1	7	40	id-1285_gender-F_age-19	arousal	0.4714668075050129	1.5186843724186474
id-1285_gender-F_age-19	1	4	1	7	40	id-1285_gender-F_age-19	valence	-0.50272767729263	1.5186843724186474
id-1302_gender-F_age-30	1	4	1	7	41	id-1302_gender-F_age-30	arousal	0.4809778716700086	1.8020397715336005
id-1302_gender-F_age-30	1	4	1	7	41	id-1302_gender-F_age-30	valence	-0.4375089515898024	1.8020397715336005
id-1315_gender-M_age-16	1	4	1	7	42	id-1315_gender-M_age-16	arousal	0.4823365951221508	2.4272804273823567
id-1315_gender-M_age-16	1	4	1	7	42	id-1315_gender-M_age-16	valence	-0.22283064615132792	2.4272804273823567
id-1318_gender-M_age-35	1	4	1	7	43	id-1318_gender-M_age-35	arousal	0.5271744690428448	1.0438055530903512
id-1318_gender-M_age-35	1	4	1	7	43	id-1318_gender-M_age-35	valence	-0.312506393992716	1.0438055530903512
id-1356_gender-F_age-20	1	4	1	7	44	id-1356_gender-F_age-20	arousal	0.5122285110692802	1.3438355577200127
id-1356_gender-F_age-20	1	4	1	7	44	id-1356_gender-F_age-20	valence	0.41305192945124203	1.3438355577200127
id-1289_gender-F_age-20	1	4	1	7	45	id-1289_gender-F_age-20	arousal	0.42934638048860335	1.9104905123203932
id-1289_gender-F_age-20	1	4	1	7	45	id-1289_gender-F_age-20	valence	0.01902212832999141	1.9104905123203932
id-1323_gender-F_age-23	1	4	1	7	46	id-1323_gender-F_age-23	arousal	0.3831497831157671	4.1939844640000965
id-1323_gender-F_age-23	1	4	1	7	46	id-1323_gender-F_age-23	valence	-0.00815234071285346	4.1939844640000965
id-1370_gender-M_age-19	1	4	1	7	47	id-1370_gender-M_age-19	arousal	0.5543489380856897	2.485685014165938
id-1370_gender-M_age-19	1	4	1	7	47	id-1370_gender-M_age-19	valence	0.6222953410811475	2.485685014165938
id-1270_gender-F_age-30	1	4	1	7	48	id-1270_gender-F_age-30	arousal	0.3070612697958014	2.4855177851386543
id-1270_gender-F_age-30	1	4	1	7	48	id-1270_gender-F_age-30	valence	0.2771795842370177	2.4855177851386543
id-1335_gender-M_age-23	1	4	1	7	49	id-1335_gender-M_age-23	arousal	0.5475553208249785	1.0270751039461177
id-1335_gender-M_age-23	1	4	1	7	49	id-1335_gender-M_age-23	valence	0.5353370401440439	1.0270751039461177
id-1339_gender-F_age-30	1	4	1	7	50	id-1339_gender-F_age-30	arousal	0.6494595797356468	0.8853847263781063
id-1339_gender-F_age-30	1	4	1	7	50	id-1339_gender-F_age-30	valence	0.1277200045013709	0.8853847263781063
id-1377_gender-M_age-20	2	4	2	2	1	id-1377_gender-M_age-20	trustworthiness	0.30499999999999994	1.785
id-1306_gender-F_age-21	2	4	2	2	2	id-1306_gender-F_age-21	trustworthiness	-0.53	1.043
id-1309_gender-M_age-22	2	4	2	2	3	id-1309_gender-M_age-22	trustworthiness	-0.31000000000000005	0.7759999999999999
id-1380_gender-F_age-21	2	4	2	2	4	id-1380_gender-F_age-21	trustworthiness	0.3899999999999999	0.743
id-1358_gender-F_age-32	2	4	2	2	5	id-1358_gender-F_age-32	trustworthiness	-0.19499999999999995	0.768
id-1363_gender-M_age-19	2	4	2	2	6	id-1363_gender-M_age-19	trustworthiness	0.09499999999999997	1.068
id-1266_gender-M_age-21	2	4	2	2	7	id-1266_gender-M_age-21	trustworthiness	0.15250000000000008	0.8009999999999999
id-1345_gender-M_age-18	2	4	2	2	8	id-1345_gender-M_age-18	trustworthiness	0.135	2.826
id-1342_gender-M_age-19	2	4	2	2	9	id-1342_gender-M_age-19	trustworthiness	-0.605	0.968
id-1290_gender-F_age-23	2	4	2	2	10	id-1290_gender-F_age-23	trustworthiness	-0.27	1.9509999999999998
id-1291_gender-F_age-24	2	4	2	2	11	id-1291_gender-F_age-24	trustworthiness	0.22999999999999998	3.76
id-1293_gender-F_age-31	2	4	2	2	12	id-1293_gender-F_age-31	trustworthiness	0.18999999999999995	1.5430000000000001
id-1344_gender-M_age-25	2	4	2	2	13	id-1344_gender-M_age-25	trustworthiness	0.16749999999999998	1.159
id-1362_gender-F_age-24	2	4	2	2	14	id-1362_gender-F_age-24	trustworthiness	0.54	0.9590000000000001
id-1355_gender-F_age-19	2	4	2	2	15	id-1355_gender-F_age-19	trustworthiness	-0.26749999999999996	1.0590000000000002
id-1347_gender-F_age-27	2	4	2	2	16	id-1347_gender-F_age-27	trustworthiness	-0.25749999999999995	0.9590000000000001
id-1315_gender-M_age-16	2	4	2	2	17	id-1315_gender-M_age-16	trustworthiness	-0.395	0.893
id-1311_gender-F_age-22	2	4	2	2	18	id-1311_gender-F_age-22	trustworthiness	0.33000000000000007	0.693
id-1335_gender-M_age-23	2	4	2	2	19	id-1335_gender-M_age-23	trustworthiness	0.22999999999999998	1.676
id-1356_gender-F_age-20	2	4	2	2	20	id-1356_gender-F_age-20	trustworthiness	0.5725	1.068
id-1361_gender-F_age-19	2	4	2	2	21	id-1361_gender-F_age-19	trustworthiness	0.20500000000000007	0.6679999999999999
id-1260_gender-F_age-22	2	4	2	2	22	id-1260_gender-F_age-22	trustworthiness	-0.15749999999999997	0.643
id-1295_gender-F_age-26	2	4	2	2	23	id-1295_gender-F_age-26	trustworthiness	-0.24	0.784
id-1270_gender-F_age-30	2	4	2	2	24	id-1270_gender-F_age-30	trustworthiness	0.06499999999999995	0.7759999999999999
id-1274_gender-F_age-33	2	4	2	2	25	id-1274_gender-F_age-33	trustworthiness	-0.5075	0.768
id-1318_gender-M_age-35	2	4	2	2	26	id-1318_gender-M_age-35	trustworthiness	-0.26749999999999996	0.868
id-1285_gender-F_age-19	2	4	2	2	27	id-1285_gender-F_age-19	trustworthiness	0.0674999999999999	3.326
id-1269_gender-F_age-23	2	4	2	2	28	id-1269_gender-F_age-23	trustworthiness	0.42999999999999994	1.143
id-1280_gender-M_age-18	2	4	2	2	29	id-1280_gender-M_age-18	trustworthiness	-0.11750000000000005	0.735
id-1370_gender-M_age-19	2	4	2	2	30	id-1370_gender-M_age-19	trustworthiness	0.7225000000000001	0.993
id-1366_gender-F_age-24	2	4	2	2	31	id-1366_gender-F_age-24	trustworthiness	-0.22499999999999998	0.809
id-1376_gender-F_age-19	2	4	2	2	32	id-1376_gender-F_age-19	trustworthiness	0.27	1.135
id-1367_gender-M_age-20	2	4	2	2	33	id-1367_gender-M_age-20	trustworthiness	0.30499999999999994	1.693
id-1297_gender-F_age-22	2	4	2	2	34	id-1297_gender-F_age-22	trustworthiness	-0.2975	0.885
id-1310_gender-F_age-28	2	4	2	2	35	id-1310_gender-F_age-28	trustworthiness	-0.21750000000000003	0.993
id-1354_gender-F_age-23	2	4	2	2	36	id-1354_gender-F_age-23	trustworthiness	-0.27	0.759
id-1339_gender-F_age-30	2	4	2	2	37	id-1339_gender-F_age-30	trustworthiness	0.37749999999999995	1.176
id-1264_gender-F_age-26	2	4	2	2	38	id-1264_gender-F_age-26	trustworthiness	0.11749999999999994	0.826
id-1273_gender-F_age-20	2	4	2	2	39	id-1273_gender-F_age-20	trustworthiness	0.345	2.385
id-1341_gender-M_age-19	2	4	2	2	40	id-1341_gender-M_age-19	trustworthiness	0.25	1.3259999999999998
id-1360_gender-F_age-20	2	4	2	2	41	id-1360_gender-F_age-20	trustworthiness	-0.135	1.193
id-1294_gender-F_age-26	2	4	2	2	42	id-1294_gender-F_age-26	trustworthiness	0.605	0.8009999999999999
id-1296_gender-F_age-23	2	4	2	2	43	id-1296_gender-F_age-23	trustworthiness	-0.21499999999999997	0.7929999999999999
id-1279_gender-F_age-19	2	4	2	2	44	id-1279_gender-F_age-19	trustworthiness	0.16749999999999998	0.701
id-1323_gender-F_age-23	2	4	2	2	45	id-1323_gender-F_age-23	trustworthiness	0.1100000000000001	1.176
id-1289_gender-F_age-20	2	4	2	2	46	id-1289_gender-F_age-20	trustworthiness	-0.08750000000000002	1.2009999999999998
id-1373_gender-F_age-30	2	4	2	2	47	id-1373_gender-F_age-30	trustworthiness	0.1399999999999999	1.618
id-1378_gender-F_age-19	2	4	2	2	48	id-1378_gender-F_age-19	trustworthiness	0.7525	1.276
id-1307_gender-F_age-22	2	4	2	2	49	id-1307_gender-F_age-22	trustworthiness	-0.18000000000000005	1.068
id-1302_gender-F_age-30	2	4	2	2	50	id-1302_gender-F_age-30	trustworthiness	0.19999999999999996	0.835
id-1380_gender-F_age-21	2	4	2	4	1	id-1380_gender-F_age-21	dominance	0.08749999999999991	1.101
id-1293_gender-F_age-31	2	4	2	4	2	id-1293_gender-F_age-31	dominance	-0.22250000000000003	0.935
id-1323_gender-F_age-23	2	4	2	4	3	id-1323_gender-F_age-23	dominance	-0.040000000000000036	0.826
id-1342_gender-M_age-19	2	4	2	4	4	id-1342_gender-M_age-19	dominance	0.7275	1.143
id-1360_gender-F_age-20	2	4	2	4	5	id-1360_gender-F_age-20	dominance	-0.475	1.5759999999999998
id-1302_gender-F_age-30	2	4	2	4	6	id-1302_gender-F_age-30	dominance	-0.5075	0.976
id-1296_gender-F_age-23	2	4	2	4	7	id-1296_gender-F_age-23	dominance	-0.355	0.91
id-1274_gender-F_age-33	2	4	2	4	8	id-1274_gender-F_age-33	dominance	0.7250000000000001	0.768
id-1377_gender-M_age-20	2	4	2	4	9	id-1377_gender-M_age-20	dominance	0.33499999999999996	1.41
id-1367_gender-M_age-20	2	4	2	4	10	id-1367_gender-M_age-20	dominance	0.6949999999999998	0.893
id-1373_gender-F_age-30	2	4	2	4	11	id-1373_gender-F_age-30	dominance	0.29000000000000004	1.351
id-1269_gender-F_age-23	2	4	2	4	12	id-1269_gender-F_age-23	dominance	0.4375	0.951
id-1273_gender-F_age-20	2	4	2	4	13	id-1273_gender-F_age-20	dominance	0.12749999999999995	1.2429999999999999
id-1339_gender-F_age-30	2	4	2	4	14	id-1339_gender-F_age-30	dominance	-0.31000000000000005	0.7759999999999999
id-1294_gender-F_age-26	2	4	2	4	15	id-1294_gender-F_age-26	dominance	-0.6225	1.176
id-1270_gender-F_age-30	2	4	2	4	16	id-1270_gender-F_age-30	dominance	0.41999999999999993	0.9840000000000001
id-1264_gender-F_age-26	2	4	2	4	17	id-1264_gender-F_age-26	dominance	-0.815	1.7009999999999998
id-1297_gender-F_age-22	2	4	2	4	18	id-1297_gender-F_age-22	dominance	0.8050000000000002	1.126
id-1311_gender-F_age-22	2	4	2	4	19	id-1311_gender-F_age-22	dominance	0.30499999999999994	1.41
id-1378_gender-F_age-19	2	4	2	4	20	id-1378_gender-F_age-19	dominance	-0.06999999999999995	1.8259999999999998
id-1361_gender-F_age-19	2	4	2	4	21	id-1361_gender-F_age-19	dominance	0.4624999999999999	1.218
id-1358_gender-F_age-32	2	4	2	4	22	id-1358_gender-F_age-32	dominance	0.35749999999999993	1.4180000000000001
id-1309_gender-M_age-22	2	4	2	4	23	id-1309_gender-M_age-22	dominance	-0.30500000000000005	0.935
id-1356_gender-F_age-20	2	4	2	4	24	id-1356_gender-F_age-20	dominance	0.040000000000000036	1.001
id-1291_gender-F_age-24	2	4	2	4	25	id-1291_gender-F_age-24	dominance	-0.12749999999999995	0.701
id-1355_gender-F_age-19	2	4	2	4	26	id-1355_gender-F_age-19	dominance	-0.8025	0.91
id-1363_gender-M_age-19	2	4	2	4	27	id-1363_gender-M_age-19	dominance	-0.12250000000000005	1.66
id-1306_gender-F_age-21	2	4	2	4	28	id-1306_gender-F_age-21	dominance	0.14749999999999996	0.893
id-1366_gender-F_age-24	2	4	2	4	29	id-1366_gender-F_age-24	dominance	0.07250000000000001	1.618
id-1370_gender-M_age-19	2	4	2	4	30	id-1370_gender-M_age-19	dominance	0.2124999999999999	1.993
id-1280_gender-M_age-18	2	4	2	4	31	id-1280_gender-M_age-18	dominance	-0.6425000000000001	1.0759999999999998
id-1344_gender-M_age-25	2	4	2	4	32	id-1344_gender-M_age-25	dominance	-0.0625	1.001
id-1307_gender-F_age-22	2	4	2	4	33	id-1307_gender-F_age-22	dominance	-0.5375	0.843
id-1341_gender-M_age-19	2	4	2	4	34	id-1341_gender-M_age-19	dominance	0.09499999999999997	0.909
id-1335_gender-M_age-23	2	4	2	4	35	id-1335_gender-M_age-23	dominance	0.26	2.801
id-1285_gender-F_age-19	2	4	2	4	36	id-1285_gender-F_age-19	dominance	-0.32499999999999996	1.126
id-1362_gender-F_age-24	2	4	2	4	37	id-1362_gender-F_age-24	dominance	0.12250000000000005	0.868
id-1376_gender-F_age-19	2	4	2	4	38	id-1376_gender-F_age-19	dominance	0.11499999999999999	0.835
id-1347_gender-F_age-27	2	4	2	4	39	id-1347_gender-F_age-27	dominance	-0.77	0.86
id-1354_gender-F_age-23	2	4	2	4	40	id-1354_gender-F_age-23	dominance	-0.43000000000000005	0.7759999999999999
id-1290_gender-F_age-23	2	4	2	4	41	id-1290_gender-F_age-23	dominance	0.7975000000000001	1.268
id-1260_gender-F_age-22	2	4	2	4	42	id-1260_gender-F_age-22	dominance	-0.815	0.909
id-1289_gender-F_age-20	2	4	2	4	43	id-1289_gender-F_age-20	dominance	0.3600000000000001	0.759
id-1295_gender-F_age-26	2	4	2	4	44	id-1295_gender-F_age-26	dominance	0.3999999999999999	0.976
id-1318_gender-M_age-35	2	4	2	4	45	id-1318_gender-M_age-35	dominance	0.815	2.418
id-1315_gender-M_age-16	2	4	2	4	46	id-1315_gender-M_age-16	dominance	0.42999999999999994	0.784
id-1266_gender-M_age-21	2	4	2	4	47	id-1266_gender-M_age-21	dominance	0.7	0.893
id-1310_gender-F_age-28	2	4	2	4	48	id-1310_gender-F_age-28	dominance	0.32499999999999996	0.8340000000000001
id-1345_gender-M_age-18	2	4	2	4	49	id-1345_gender-M_age-18	dominance	0.7075	1.109
id-1279_gender-F_age-19	2	4	2	4	50	id-1279_gender-F_age-19	dominance	-0.635	1.743
id-1279_gender-F_age-19	2	4	2	6	1	id-1279_gender-F_age-19	arousal	0.2948327587265212	3.1025174307578713
id-1279_gender-F_age-19	2	4	2	6	1	id-1279_gender-F_age-19	valence	0.3532680975569833	3.1025174307578713
id-1347_gender-F_age-27	2	4	2	6	2	id-1347_gender-F_age-27	arousal	0.32064850431722386	1.0354021435523464
id-1347_gender-F_age-27	2	4	2	6	2	id-1347_gender-F_age-27	valence	-0.3288110754184229	1.0354021435523464
id-1335_gender-M_age-23	2	4	2	6	3	id-1335_gender-M_age-23	arousal	0.5896757478413881	0.9103477337448568
id-1335_gender-M_age-23	2	4	2	6	3	id-1335_gender-M_age-23	valence	0.4701183144412162	0.9103477337448568
id-1354_gender-F_age-23	2	4	2	6	4	id-1354_gender-F_age-23	arousal	0.3872259534721938	1.043785932357423
id-1354_gender-F_age-23	2	4	2	6	4	id-1354_gender-F_age-23	valence	-0.524467252526906	1.043785932357423
id-1355_gender-F_age-19	2	4	2	6	5	id-1355_gender-F_age-19	arousal	0.5584251084421165	0.9269987943807791
id-1355_gender-F_age-19	2	4	2	6	5	id-1355_gender-F_age-19	valence	-0.4375089515898024	0.9269987943807791
id-1341_gender-M_age-19	2	4	2	6	6	id-1341_gender-M_age-19	arousal	0.5298919159471294	1.093701985799271
id-1341_gender-M_age-19	2	4	2	6	6	id-1341_gender-M_age-19	valence	0.8070817305724926	1.093701985799271
id-1291_gender-F_age-24	2	4	2	6	7	id-1291_gender-F_age-24	arousal	0.42391148668003437	0.7603390704352933
id-1291_gender-F_age-24	2	4	2	6	7	id-1291_gender-F_age-24	valence	0.13858979211850886	0.7603390704352933
id-1309_gender-M_age-22	2	4	2	6	8	id-1309_gender-M_age-22	arousal	0.5516314911814052	0.7353467828907014
id-1309_gender-M_age-22	2	4	2	6	8	id-1309_gender-M_age-22	valence	-0.12228511069280193	0.7353467828907014
id-1356_gender-F_age-20	2	4	2	6	9	id-1356_gender-F_age-20	arousal	0.3532578671686377	1.65205676610276
id-1356_gender-F_age-20	2	4	2	6	9	id-1356_gender-F_age-20	valence	0.17391660187420716	1.65205676610276
id-1318_gender-M_age-35	2	4	2	6	10	id-1318_gender-M_age-35	arousal	0.8057127767320047	0.9020140532738878
id-1318_gender-M_age-35	2	4	2	6	10	id-1318_gender-M_age-35	valence	-0.3206587347055695	0.9020140532738878
id-1323_gender-F_age-23	2	4	2	6	11	id-1323_gender-F_age-23	arousal	0.5706536195113967	2.4105581283874926
id-1323_gender-F_age-23	2	4	2	6	11	id-1323_gender-F_age-23	valence	-0.07880596022425011	2.4105581283874926
id-1345_gender-M_age-18	2	4	2	6	12	id-1345_gender-M_age-18	arousal	0.21330935159798664	0.8102080341195688
id-1345_gender-M_age-18	2	4	2	6	12	id-1345_gender-M_age-18	valence	0.5081625711011989	0.8102080341195688
id-1377_gender-M_age-20	2	4	2	6	13	id-1377_gender-M_age-20	arousal	0.6358723452142243	0.6771667780521966
id-1377_gender-M_age-20	2	4	2	6	13	id-1377_gender-M_age-20	valence	-0.08695830093710358	0.6771667780521966
id-1311_gender-F_age-22	2	4	2	6	14	id-1311_gender-F_age-22	arousal	0.5855995774849614	0.7770897440314002
id-1311_gender-F_age-22	2	4	2	6	14	id-1311_gender-F_age-22	valence	-0.1250025575970864	0.7770897440314002
id-1315_gender-M_age-16	2	4	2	6	15	id-1315_gender-M_age-16	arousal	0.33287701538650405	0.9771801805218274
id-1315_gender-M_age-16	2	4	2	6	15	id-1315_gender-M_age-16	valence	0.1032629823628105	0.9771801805218274
id-1376_gender-F_age-19	2	4	2	6	16	id-1376_gender-F_age-19	arousal	0.24184254409297373	0.9355501140707928
id-1376_gender-F_age-19	2	4	2	6	16	id-1376_gender-F_age-19	valence	0.12228511069280193	0.9355501140707928
id-1294_gender-F_age-26	2	4	2	6	17	id-1294_gender-F_age-26	arousal	0.45244467917502146	1.1104194550753164
id-1294_gender-F_age-26	2	4	2	6	17	id-1294_gender-F_age-26	valence	0.4782706551540697	1.1104194550753164
id-1342_gender-M_age-19	2	4	2	6	18	id-1342_gender-M_age-19	arousal	0.6114153230756639	0.9852690545994848
id-1342_gender-M_age-19	2	4	2	6	18	id-1342_gender-M_age-19	valence	-0.7011013013053977	0.9852690545994848
id-1280_gender-M_age-18	2	4	2	6	19	id-1280_gender-M_age-18	arousal	0.7214719226991857	1.076903316868993
id-1280_gender-M_age-18	2	4	2	6	19	id-1280_gender-M_age-18	valence	-0.33424596922699185	1.076903316868993
id-1358_gender-F_age-32	2	4	2	6	20	id-1358_gender-F_age-32	arousal	0.20108084052870645	1.6936684192514804
id-1358_gender-F_age-32	2	4	2	6	20	id-1358_gender-F_age-32	valence	-0.17391660187420716	1.6936684192514804
id-1310_gender-F_age-28	2	4	2	6	21	id-1310_gender-F_age-28	arousal	0.7241893696034702	0.6852055437921081
id-1310_gender-F_age-28	2	4	2	6	21	id-1310_gender-F_age-28	valence	-0.14945957973564675	0.6852055437921081
id-1269_gender-F_age-23	2	4	2	6	22	id-1269_gender-F_age-23	arousal	0.41440042251503867	0.6018503257946577
id-1269_gender-F_age-23	2	4	2	6	22	id-1269_gender-F_age-23	valence	-0.14130723902279332	0.6018503257946577
id-1367_gender-M_age-20	2	4	2	6	23	id-1367_gender-M_age-20	arousal	0.3641276547857757	1.5437690283361007
id-1367_gender-M_age-20	2	4	2	6	23	id-1367_gender-M_age-20	valence	-0.03532680975569833	1.5437690283361007
id-1274_gender-F_age-33	2	4	2	6	24	id-1274_gender-F_age-33	arousal	0.6345136217620821	0.8854583795910003
id-1274_gender-F_age-33	2	4	2	6	24	id-1274_gender-F_age-33	valence	-0.6766442791668373	0.8854583795910003
id-1370_gender-M_age-19	2	4	2	6	25	id-1370_gender-M_age-19	arousal	0.6644055377092115	1.9273580047447467
id-1370_gender-M_age-19	2	4	2	6	25	id-1370_gender-M_age-19	valence	0.7989293898596391	1.9273580047447467
id-1378_gender-F_age-19	2	4	2	6	26	id-1378_gender-F_age-19	arousal	0.6888625598477718	1.1937366390338866
id-1378_gender-F_age-19	2	4	2	6	26	id-1378_gender-F_age-19	valence	0.7826247084339323	1.1937366390338866
id-1306_gender-F_age-21	2	4	2	6	27	id-1306_gender-F_age-21	arousal	0.42934638048860335	0.8854272882745136
id-1306_gender-F_age-21	2	4	2	6	27	id-1306_gender-F_age-21	valence	-0.06521872570282768	0.8854272882745136
id-1264_gender-F_age-26	2	4	2	6	28	id-1264_gender-F_age-26	arousal	0.7853319249498711	2.2771857346997417
id-1264_gender-F_age-26	2	4	2	6	28	id-1264_gender-F_age-26	valence	-0.10869787617137948	2.2771857346997417
id-1380_gender-F_age-21	2	4	2	6	29	id-1380_gender-F_age-21	arousal	0.21466807505012886	2.360612492913788
id-1380_gender-F_age-21	2	4	2	6	29	id-1380_gender-F_age-21	valence	0.13043745140565535	2.360612492913788
id-1295_gender-F_age-26	2	4	2	6	30	id-1295_gender-F_age-26	arousal	0.43478127429717234	1.752261968798848
id-1295_gender-F_age-26	2	4	2	6	30	id-1295_gender-F_age-26	valence	-0.31522384089700045	1.752261968798848
id-1273_gender-F_age-20	2	4	2	6	31	id-1273_gender-F_age-20	arousal	0.5720123429635389	1.1103865526129084
id-1273_gender-F_age-20	2	4	2	6	31	id-1273_gender-F_age-20	valence	0.725558323443958	1.1103865526129084
id-1307_gender-F_age-22	2	4	2	6	32	id-1307_gender-F_age-22	arousal	0.3695625485943447	1.335517573839752
id-1307_gender-F_age-22	2	4	2	6	32	id-1307_gender-F_age-22	valence	0.30707150018414703	1.335517573839752
id-1293_gender-F_age-31	2	4	2	6	33	id-1293_gender-F_age-31	arousal	0.16575403077300815	1.0603204760191147
id-1293_gender-F_age-31	2	4	2	6	33	id-1293_gender-F_age-31	valence	-0.1440246859270778	1.0603204760191147
id-1362_gender-F_age-24	2	4	2	6	34	id-1362_gender-F_age-24	arousal	0.42527021013217664	2.61889470668757
id-1362_gender-F_age-24	2	4	2	6	34	id-1362_gender-F_age-24	valence	0.5543591684740353	2.61889470668757
id-1302_gender-F_age-30	2	4	2	6	35	id-1302_gender-F_age-30	arousal	0.42527021013217664	0.993998168331018
id-1302_gender-F_age-30	2	4	2	6	35	id-1302_gender-F_age-30	valence	-0.06793617260711217	0.993998168331018
id-1270_gender-F_age-30	2	4	2	6	36	id-1270_gender-F_age-30	arousal	0.41711786941932316	1.0187055024398433
id-1270_gender-F_age-30	2	4	2	6	36	id-1270_gender-F_age-30	valence	0.0842408540328191	1.0187055024398433
id-1366_gender-F_age-24	2	4	2	6	37	id-1366_gender-F_age-24	arousal	0.6426659624749356	3.2607529170018097
id-1366_gender-F_age-24	2	4	2	6	37	id-1366_gender-F_age-24	valence	-0.19022128329991408	3.2607529170018097
id-1266_gender-M_age-21	2	4	2	6	38	id-1266_gender-M_age-21	arousal	0.3695625485943447	1.1271529227960857
id-1266_gender-M_age-21	2	4	2	6	38	id-1266_gender-M_age-21	valence	-0.0027174469042844872	1.1271529227960857
id-1361_gender-F_age-19	2	4	2	6	39	id-1361_gender-F_age-19	arousal	0.3315182919343618	0.9355304933378648
id-1361_gender-F_age-19	2	4	2	6	39	id-1361_gender-F_age-19	valence	-0.23370043376846586	0.9355304933378648
id-1363_gender-M_age-19	2	4	2	6	40	id-1363_gender-M_age-19	arousal	0.2975502056308057	7.369354586513508
id-1363_gender-M_age-19	2	4	2	6	40	id-1363_gender-M_age-19	valence	0.11956766378851742	7.369354586513508
id-1260_gender-F_age-22	2	4	2	6	41	id-1260_gender-F_age-22	arousal	0.2540710551622539	2.9690405943947558
id-1260_gender-F_age-22	2	4	2	6	41	id-1260_gender-F_age-22	valence	-0.14945957973564675	2.9690405943947558
id-1373_gender-F_age-30	2	4	2	6	42	id-1373_gender-F_age-30	arousal	0.23097275647583576	1.1770713910955235
id-1373_gender-F_age-30	2	4	2	6	42	id-1373_gender-F_age-30	valence	-0.1032629823628105	1.1770713910955235
id-1344_gender-M_age-25	2	4	2	6	43	id-1344_gender-M_age-25	arousal	0.3342357388386463	2.0536928938563506
id-1344_gender-M_age-25	2	4	2	6	43	id-1344_gender-M_age-25	valence	0.06521872570282768	2.0536928938563506
id-1290_gender-F_age-23	2	4	2	6	44	id-1290_gender-F_age-23	arousal	0.5828821305806768	1.5769935722491937
id-1290_gender-F_age-23	2	4	2	6	44	id-1290_gender-F_age-23	valence	-0.1277200045013709	1.5769935722491937
id-1360_gender-F_age-20	2	4	2	6	45	id-1360_gender-F_age-20	arousal	0.555707661537832	1.3602997685957234
id-1360_gender-F_age-20	2	4	2	6	45	id-1360_gender-F_age-20	valence	-0.3831600135041127	1.3602997685957234
id-1296_gender-F_age-23	2	4	2	6	46	id-1296_gender-F_age-23	arousal	0.2744519069443876	0.8353334407947841
id-1296_gender-F_age-23	2	4	2	6	46	id-1296_gender-F_age-23	valence	-0.105980429267095	0.8353334407947841
id-1289_gender-F_age-20	2	4	2	6	47	id-1289_gender-F_age-20	arousal	0.2703757365879609	1.6854394833171682
id-1289_gender-F_age-20	2	4	2	6	47	id-1289_gender-F_age-20	valence	-0.05163149118140525	1.6854394833171682
id-1297_gender-F_age-22	2	4	2	6	48	id-1297_gender-F_age-22	arousal	0.28803914146581	3.5941170397927635
id-1297_gender-F_age-22	2	4	2	6	48	id-1297_gender-F_age-22	valence	0.06793617260711217	3.5941170397927635
id-1339_gender-F_age-30	2	4	2	6	49	id-1339_gender-F_age-30	arousal	0.5584251084421165	0.8937627798914036
id-1339_gender-F_age-30	2	4	2	6	49	id-1339_gender-F_age-30	valence	0.44566129230265583	0.8937627798914036
id-1285_gender-F_age-19	2	4	2	6	50	id-1285_gender-F_age-19	arousal	0.544837873920694	1.4521746112513938
id-1285_gender-F_age-19	2	4	2	6	50	id-1285_gender-F_age-19	valence	-0.5516417215697509	1.4521746112513938
id-1315_gender-M_age-16	2	4	2	8	1	id-1315_gender-M_age-16	attractiveness	0.08250000000000002	1.66
id-1302_gender-F_age-30	2	4	2	8	2	id-1302_gender-F_age-30	attractiveness	-0.52	1.4180000000000001
id-1294_gender-F_age-26	2	4	2	8	3	id-1294_gender-F_age-26	attractiveness	-0.22999999999999998	0.7929999999999999
id-1355_gender-F_age-19	2	4	2	8	4	id-1355_gender-F_age-19	attractiveness	-0.81	1.01
id-1335_gender-M_age-23	2	4	2	8	5	id-1335_gender-M_age-23	attractiveness	0.14500000000000002	3.31
id-1290_gender-F_age-23	2	4	2	8	6	id-1290_gender-F_age-23	attractiveness	0.7650000000000001	0.909
id-1273_gender-F_age-20	2	4	2	8	7	id-1273_gender-F_age-20	attractiveness	0.77	0.893
id-1380_gender-F_age-21	2	4	2	8	8	id-1380_gender-F_age-21	attractiveness	-0.15500000000000003	0.518
id-1285_gender-F_age-19	2	4	2	8	9	id-1285_gender-F_age-19	attractiveness	0.08749999999999991	1.768
id-1311_gender-F_age-22	2	4	2	8	10	id-1311_gender-F_age-22	attractiveness	0.18999999999999995	0.743
id-1376_gender-F_age-19	2	4	2	8	11	id-1376_gender-F_age-19	attractiveness	0.5325	0.818
id-1306_gender-F_age-21	2	4	2	8	12	id-1306_gender-F_age-21	attractiveness	0.05499999999999994	0.826
id-1339_gender-F_age-30	2	4	2	8	13	id-1339_gender-F_age-30	attractiveness	-0.1925	0.609
id-1295_gender-F_age-26	2	4	2	8	14	id-1295_gender-F_age-26	attractiveness	-0.12	0.6509999999999999
id-1377_gender-M_age-20	2	4	2	8	15	id-1377_gender-M_age-20	attractiveness	-0.31499999999999995	0.7509999999999999
id-1358_gender-F_age-32	2	4	2	8	16	id-1358_gender-F_age-32	attractiveness	-0.5775	0.7509999999999999
id-1347_gender-F_age-27	2	4	2	8	17	id-1347_gender-F_age-27	attractiveness	-0.8	0.8340000000000001
id-1361_gender-F_age-19	2	4	2	8	18	id-1361_gender-F_age-19	attractiveness	-0.16249999999999998	2.185
id-1274_gender-F_age-33	2	4	2	8	19	id-1274_gender-F_age-33	attractiveness	-0.8225	1.61
id-1345_gender-M_age-18	2	4	2	8	20	id-1345_gender-M_age-18	attractiveness	0.05750000000000011	0.968
id-1360_gender-F_age-20	2	4	2	8	21	id-1360_gender-F_age-20	attractiveness	-0.24	1.285
id-1344_gender-M_age-25	2	4	2	8	22	id-1344_gender-M_age-25	attractiveness	-0.5125	1.2590000000000001
id-1269_gender-F_age-23	2	4	2	8	23	id-1269_gender-F_age-23	attractiveness	0.11749999999999994	1.776
id-1378_gender-F_age-19	2	4	2	8	24	id-1378_gender-F_age-19	attractiveness	-0.05249999999999999	0.868
id-1270_gender-F_age-30	2	4	2	8	25	id-1270_gender-F_age-30	attractiveness	0.0674999999999999	0.7340000000000001
id-1362_gender-F_age-24	2	4	2	8	26	id-1362_gender-F_age-24	attractiveness	0.07000000000000006	0.851
id-1310_gender-F_age-28	2	4	2	8	27	id-1310_gender-F_age-28	attractiveness	-0.29500000000000004	0.893
id-1291_gender-F_age-24	2	4	2	8	28	id-1291_gender-F_age-24	attractiveness	-0.42500000000000004	1.093
id-1264_gender-F_age-26	2	4	2	8	29	id-1264_gender-F_age-26	attractiveness	-0.89	1.376
id-1309_gender-M_age-22	2	4	2	8	30	id-1309_gender-M_age-22	attractiveness	-0.6325	0.9179999999999999
id-1370_gender-M_age-19	2	4	2	8	31	id-1370_gender-M_age-19	attractiveness	0.6525000000000001	0.843
id-1318_gender-M_age-35	2	4	2	8	32	id-1318_gender-M_age-35	attractiveness	0.3425	0.684
id-1354_gender-F_age-23	2	4	2	8	33	id-1354_gender-F_age-23	attractiveness	-0.515	0.759
id-1279_gender-F_age-19	2	4	2	8	34	id-1279_gender-F_age-19	attractiveness	-0.16249999999999998	0.843
id-1366_gender-F_age-24	2	4	2	8	35	id-1366_gender-F_age-24	attractiveness	-0.4325	0.9940000000000001
id-1280_gender-M_age-18	2	4	2	8	36	id-1280_gender-M_age-18	attractiveness	-0.68	0.934
id-1341_gender-M_age-19	2	4	2	8	37	id-1341_gender-M_age-19	attractiveness	0.5925	0.718
id-1363_gender-M_age-19	2	4	2	8	38	id-1363_gender-M_age-19	attractiveness	-0.3175	1.018
id-1342_gender-M_age-19	2	4	2	8	39	id-1342_gender-M_age-19	attractiveness	-0.15500000000000003	0.743
id-1289_gender-F_age-20	2	4	2	8	40	id-1289_gender-F_age-20	attractiveness	-0.5075	0.9840000000000001
id-1307_gender-F_age-22	2	4	2	8	41	id-1307_gender-F_age-22	attractiveness	-0.765	0.8759999999999999
id-1296_gender-F_age-23	2	4	2	8	42	id-1296_gender-F_age-23	attractiveness	-0.43500000000000005	0.843
id-1260_gender-F_age-22	2	4	2	8	43	id-1260_gender-F_age-22	attractiveness	-0.52	0.7759999999999999
id-1323_gender-F_age-23	2	4	2	8	44	id-1323_gender-F_age-23	attractiveness	0.1100000000000001	0.701
id-1367_gender-M_age-20	2	4	2	8	45	id-1367_gender-M_age-20	attractiveness	0.5475000000000001	1.376
id-1356_gender-F_age-20	2	4	2	8	46	id-1356_gender-F_age-20	attractiveness	0.02499999999999991	1.026
id-1297_gender-F_age-22	2	4	2	8	47	id-1297_gender-F_age-22	attractiveness	-0.09250000000000003	1.001
id-1266_gender-M_age-21	2	4	2	8	48	id-1266_gender-M_age-21	attractiveness	-0.08250000000000002	0.768
id-1373_gender-F_age-30	2	4	2	8	49	id-1373_gender-F_age-30	attractiveness	-0.11499999999999999	0.9009999999999999
id-1293_gender-F_age-31	2	4	2	8	50	id-1293_gender-F_age-31	attractiveness	-0.4675	0.726
