	rep	session	run	block	trial	data_split	trial_type	rating_type	rating	rating_intensity	rating_RT
id-1315_AU14-66_AU22-33_AU24-66_AU6-100	1	1	1	1	1	test_extra	id-1315_AU14-66_AU22-33_AU24-66_AU6-100	valence	-0.3369634161312764		2.5357722207809275
id-1315_AU14-66_AU22-33_AU24-66_AU6-100	1	1	1	1	1	test_extra	id-1315_AU14-66_AU22-33_AU24-66_AU6-100	arousal	0.29620171256700906		2.5357722207809275
id-1266_AU17-33_AU24-33_AU26-66	1	1	1	1	2	train	id-1266_AU17-33_AU24-33_AU26-66	valence	-0.11141532307566396		1.4353569253071328
id-1266_AU17-33_AU24-33_AU26-66	1	1	1	1	2	train	id-1266_AU17-33_AU24-33_AU26-66	arousal	0.04619659737283628		1.4353569253071328
id-1264_AU10Open-66_AU25-66_AU43-33	1	1	1	1	3	test_extra	id-1264_AU10Open-66_AU25-66_AU43-33	valence	0.3641378851741212		1.2937891018591472
id-1264_AU10Open-66_AU25-66_AU43-33	1	1	1	1	3	test_extra	id-1264_AU10Open-66_AU25-66_AU43-33	arousal	-0.3179412878012849		1.2937891018591472
id-1269_AU1-66_AU16Open-33_AU20-66	1	1	1	1	4	train	id-1269_AU1-66_AU16Open-33_AU20-66	valence	-0.418486823259811		0.8270009677544294
id-1269_AU1-66_AU16Open-33_AU20-66	1	1	1	1	4	train	id-1269_AU1-66_AU16Open-33_AU20-66	arousal	0.04347915046855179		0.8270009677544294
id-1296_AU13-66_AU14-100_AU17-66	1	1	1	1	5	test_extra	id-1296_AU13-66_AU14-100_AU17-66	valence	0.0027174469042844872		2.910384862210776
id-1296_AU13-66_AU14-100_AU17-66	1	1	1	1	5	test_extra	id-1296_AU13-66_AU14-100_AU17-66	arousal	0.02717446904284487		2.910384862210776
id-1294_AU11-33_AU14-33_AU17-33_AU4-100	1	1	1	1	6	test_extra	id-1294_AU11-33_AU14-33_AU17-33_AU4-100	valence	0.50272767729263		1.7021756677568192
id-1294_AU11-33_AU14-33_AU17-33_AU4-100	1	1	1	1	6	test_extra	id-1294_AU11-33_AU14-33_AU17-33_AU4-100	arousal	-0.5108800180054835		1.7021756677568192
id-1293_AU1-33_AU27i-100_AU43-100_AU6-66	1	1	1	1	7	test_extra	id-1293_AU1-33_AU27i-100_AU43-100_AU6-66	valence	-0.8152340712853461		1.3186214049528644
id-1293_AU1-33_AU27i-100_AU43-100_AU6-66	1	1	1	1	7	test_extra	id-1293_AU1-33_AU27i-100_AU43-100_AU6-66	arousal	0.7771898146253633		1.3186214049528644
id-1362_AU7-100	1	1	1	1	8	test_extra	id-1362_AU7-100	valence	0.0		2.19385919315755
id-1362_AU7-100	1	1	1	1	8	test_extra	id-1362_AU7-100	arousal	0.0		2.19385919315755
id-1294_AU12-100_AU24-66_AU27i-33	1	1	1	1	9	test_extra	id-1294_AU12-100_AU24-66_AU27i-33	valence	-0.4728357613455008		0.8020464123947022
id-1294_AU12-100_AU24-66_AU27i-33	1	1	1	1	9	test_extra	id-1294_AU12-100_AU24-66_AU27i-33	arousal	0.4728357613455008		0.8020464123947022
id-1302_AU12-66_AU43-33	1	1	1	1	10	test_extra	id-1302_AU12-66_AU43-33	valence	-0.10869787617137948		0.6852849323040573
id-1302_AU12-66_AU43-33	1	1	1	1	10	test_extra	id-1302_AU12-66_AU43-33	arousal	0.03804425665998282		0.6852849323040573
id-1377_AU17-33_AU2-33_AU25-66_AU4-33_AU7-100	1	1	1	1	11	test_extra	id-1377_AU17-33_AU2-33_AU25-66_AU4-33_AU7-100	valence	-0.3097889470884315		1.043741861165472
id-1377_AU17-33_AU2-33_AU25-66_AU4-33_AU7-100	1	1	1	1	11	test_extra	id-1377_AU17-33_AU2-33_AU25-66_AU4-33_AU7-100	arousal	0.2744621373327332		1.043741861165472
id-1360_AU13-100_AU2-66_AU24-33	1	1	1	1	12	test_extra	id-1360_AU13-100_AU2-66_AU24-33	valence	-0.1684817080656382		2.627396521755145
id-1360_AU13-100_AU2-66_AU24-33	1	1	1	1	12	test_extra	id-1360_AU13-100_AU2-66_AU24-33	arousal	-0.08695830093710358		2.627396521755145
id-1264_AU10Open-33_AU11-100_AU2-66_AU20-100	1	1	1	1	13	train	id-1264_AU10Open-33_AU11-100_AU2-66_AU20-100	valence	-0.5434893808568974		1.4438028967451828
id-1264_AU10Open-33_AU11-100_AU2-66_AU20-100	1	1	1	1	13	train	id-1264_AU10Open-33_AU11-100_AU2-66_AU20-100	arousal	0.38044256659982817		1.4438028967451828
id-1335_AU20-33_AU22-100_AU4-100_AU7-66	1	1	1	1	14	test_extra	id-1335_AU20-33_AU22-100_AU4-100_AU7-66	valence	-0.11141532307566396		1.635713600066083
id-1335_AU20-33_AU22-100_AU4-100_AU7-66	1	1	1	1	14	test_extra	id-1335_AU20-33_AU22-100_AU4-100_AU7-66	arousal	0.08695830093710358		1.635713600066083
id-1289_AU17-33_AU26-66	1	1	1	1	15	test	id-1289_AU17-33_AU26-66	valence	0.13858979211850886		0.6436249819635123
id-1289_AU17-33_AU26-66	1	1	1	1	15	test	id-1289_AU17-33_AU26-66	arousal	0.0815234071285346		0.6436249819635123
id-1355_AU24-66_AU25-100_AU43-33	1	1	1	1	16	test_extra	id-1355_AU24-66_AU25-100_AU43-33	valence	0.00815234071285346		1.2103421191968664
id-1355_AU24-66_AU25-100_AU43-33	1	1	1	1	16	test_extra	id-1355_AU24-66_AU25-100_AU43-33	arousal	0.024457022138560384		1.2103421191968664
id-1290_AU24-100_AU9-33	1	1	1	1	17	train	id-1290_AU24-100_AU9-33	valence	-0.7663200270082253		1.2689323483100452
id-1290_AU24-100_AU9-33	1	1	1	1	17	train	id-1290_AU24-100_AU9-33	arousal	0.029891915947129363		1.2689323483100452
id-1260_AU1-100_AU16Open-100_AU2-33	1	1	1	1	18	test_extra	id-1260_AU1-100_AU16Open-100_AU2-33	valence	0.5924034251340181		1.3353569856772085
id-1260_AU1-100_AU16Open-100_AU2-33	1	1	1	1	18	test_extra	id-1260_AU1-100_AU16Open-100_AU2-33	arousal	0.04347915046855179		1.3353569856772085
id-1356_AU1-33_AU12-33_AU24-33_AU6-100	1	1	1	1	19	test_extra	id-1356_AU1-33_AU12-33_AU24-33_AU6-100	valence	-0.2255480930556124		3.4439006985594465
id-1356_AU1-33_AU12-33_AU24-33_AU6-100	1	1	1	1	19	test_extra	id-1356_AU1-33_AU12-33_AU24-33_AU6-100	arousal	0.05978383189425871		3.4439006985594465
id-1274_AU10Open-66_AU2-33_AU43-100_AU9-66	1	1	1	1	20	test	id-1274_AU10Open-66_AU2-33_AU43-100_AU9-66	valence	-0.6222953410811475		0.7935962149495026
id-1274_AU10Open-66_AU2-33_AU43-100_AU9-66	1	1	1	1	20	test	id-1274_AU10Open-66_AU2-33_AU43-100_AU9-66	arousal	0.5081625711011989		0.7935962149495026
id-1306_AU15-66_AU26-66_AU5-66	1	1	1	1	21	test_extra	id-1306_AU15-66_AU26-66_AU5-66	valence	-0.720123429635389		0.8267794043858885
id-1306_AU15-66_AU26-66_AU5-66	1	1	1	1	21	test_extra	id-1306_AU15-66_AU26-66_AU5-66	arousal	0.6630570446454148		0.8267794043858885
id-1366_AU14-33_AU2-100_AU26-100_AU27i-100	1	1	1	1	22	test	id-1366_AU14-33_AU2-100_AU26-100_AU27i-100	valence	-0.8695830093710358		0.8353340445100912
id-1366_AU14-33_AU2-100_AU26-100_AU27i-100	1	1	1	1	22	test	id-1366_AU14-33_AU2-100_AU26-100_AU27i-100	arousal	0.7989293898596391		0.8353340445100912
id-1307_AU17-66_AU2-100_AU7-66	1	1	1	1	23	train	id-1307_AU17-66_AU2-100_AU7-66	valence	0.4429438453983714		0.5268342216986639
id-1307_AU17-66_AU2-100_AU7-66	1	1	1	1	23	train	id-1307_AU17-66_AU2-100_AU7-66	arousal	0.03260936285141384		0.5268342216986639
id-1311_AU24-66	1	1	1	1	24	test_extra	id-1311_AU24-66	valence	0.3206587347055695		0.993625978091586
id-1311_AU24-66	1	1	1	1	24	test_extra	id-1311_AU24-66	arousal	-0.3559855444612677		0.993625978091586
id-1363_AU1-33_AU15-100_AU2-66_AU22-66_AU5-100	1	1	1	1	25	test	id-1363_AU1-33_AU15-100_AU2-66_AU22-66_AU5-100	valence	0.2663097966198797		1.2270324212986452
id-1363_AU1-33_AU15-100_AU2-66_AU22-66_AU5-100	1	1	1	1	25	test	id-1363_AU1-33_AU15-100_AU2-66_AU22-66_AU5-100	arousal	-0.3505506506526989		1.2270324212986452
id-1367_AU11-100_AU16Open-66_AU25-100	1	1	1	1	26	test_extra	id-1367_AU11-100_AU16Open-66_AU25-100	valence	-0.19565617710848307		1.1102781857880473
id-1367_AU11-100_AU16Open-66_AU25-100	1	1	1	1	26	test_extra	id-1367_AU11-100_AU16Open-66_AU25-100	arousal	-0.04347915046855179		1.1102781857880473
id-1363_AU2-66_AU24-100_AU26-33	1	1	1	1	27	train	id-1363_AU2-66_AU24-100_AU26-33	valence	-0.20652596472562101		2.1273711657340755
id-1363_AU2-66_AU24-100_AU26-33	1	1	1	1	27	train	id-1363_AU2-66_AU24-100_AU26-33	arousal	-0.5896859782297337		2.1273711657340755
id-1260_AU12-100_AU4-66_AU43-66	1	1	1	1	28	test_extra	id-1260_AU12-100_AU4-66_AU43-66	valence	-0.8396910934239064		1.3186956618847034
id-1260_AU12-100_AU4-66_AU43-66	1	1	1	1	28	test_extra	id-1260_AU12-100_AU4-66_AU43-66	arousal	0.4592485268240783		1.3186956618847034
id-1297_AU2-66_AU22-66	1	1	1	1	29	test_extra	id-1297_AU2-66_AU22-66	valence	-0.40489958873838855		0.7269376380609174
id-1297_AU2-66_AU22-66	1	1	1	1	29	test_extra	id-1297_AU2-66_AU22-66	arousal	-0.831538752711053		0.7269376380609174
id-1341_AU1-33_AU15-33_AU2-66_AU4-33	1	1	1	1	30	test	id-1341_AU1-33_AU15-33_AU2-66_AU4-33	valence	-0.2608749028113107		0.8605539325690188
id-1341_AU1-33_AU15-33_AU2-66_AU4-33	1	1	1	1	30	test	id-1341_AU1-33_AU15-33_AU2-66_AU4-33	arousal	-0.7092536420182511		0.8605539325690188
id-1291_AU15-66_AU20-66_AU7-100	1	1	1	1	31	test_extra	id-1291_AU15-66_AU20-66_AU7-100	valence	-0.4103344825469576		0.6031401626751176
id-1291_AU15-66_AU20-66_AU7-100	1	1	1	1	31	test_extra	id-1291_AU15-66_AU20-66_AU7-100	arousal	0.21739575234275896		0.6031401626751176
id-1360_AU1-100_AU11-66	1	1	1	1	32	test	id-1360_AU1-100_AU11-66	valence	-0.1684817080656382		0.860484807210014
id-1360_AU1-100_AU11-66	1	1	1	1	32	test	id-1360_AU1-100_AU11-66	arousal	0.03532680975569833		0.860484807210014
id-1274_AU10Open-100_AU15-100	1	1	1	1	33	train	id-1274_AU10Open-100_AU15-100	valence	-0.7038187482096819		0.9353859036200448
id-1274_AU10Open-100_AU15-100	1	1	1	1	33	train	id-1274_AU10Open-100_AU15-100	arousal	0.6413174694111391		0.9353859036200448
id-1269_AU16Open-66_AU5-100	1	1	1	1	34	train	id-1269_AU16Open-66_AU5-100	valence	-0.14130723902279332		0.6186734451766824
id-1269_AU16Open-66_AU5-100	1	1	1	1	34	train	id-1269_AU16Open-66_AU5-100	arousal	0.0625012787985432		0.6186734451766824
id-1339_AU11-100_AU20-100_AU4-33	1	1	1	1	35	train	id-1339_AU11-100_AU20-100_AU4-33	valence	-0.402182141834104		0.8351456854616117
id-1339_AU11-100_AU20-100_AU4-33	1	1	1	1	35	train	id-1339_AU11-100_AU20-100_AU4-33	arousal	0.4429438453983714		0.8351456854616117
id-1344_AU13-66_AU14-66_AU24-33_AU9-33	1	1	1	1	36	test	id-1344_AU13-66_AU14-66_AU24-33_AU9-33	valence	-0.7989293898596391		0.8188665132038295
id-1344_AU13-66_AU14-66_AU24-33_AU9-33	1	1	1	1	36	test	id-1344_AU13-66_AU14-66_AU24-33_AU9-33	arousal	0.6630570446454148		0.8188665132038295
id-1273_AU12-100_AU16Open-100_AU5-66	1	1	1	2	1	train	id-1273_AU12-100_AU16Open-100_AU5-66	emotion	Blij	0.440619724876073	2.6535557901988795
id-1361_AU7-66	1	1	1	2	2	test_extra	id-1361_AU7-66	emotion	Verrassing	0.3763161649327689	0.7363860780933464
id-1302_AU26-100	1	1	1	2	3	train	id-1302_AU26-100	emotion	Verrassing	0.7962499702989949	1.6033182585706531
id-1307_AU10Open-66_AU17-33_AU22-33_AU9-100	1	1	1	2	4	test	id-1307_AU10Open-66_AU17-33_AU22-33_AU9-100	emotion	Boos	0.5901986703941077	2.536845927734248
id-1302_AU17-66_AU27i-100_AU4-100_AU6-33_AU7-100	1	1	1	2	5	test_extra	id-1302_AU17-66_AU27i-100_AU4-100_AU6-33_AU7-100	emotion	Walging	0.5605134706507283	1.4864384503598558
id-1376_AU14-33_AU17-33_AU2-100_AU27i-33_AU43-66	1	1	1	2	6	test_extra	id-1376_AU14-33_AU17-33_AU2-100_AU27i-33_AU43-66	emotion	Blij	0.3156025416349022	5.76222296278138
id-1270_AU5-33_AU7-100	1	1	1	2	7	test_extra	id-1270_AU5-33_AU7-100	emotion	Verrassing	0.08094595270728362	1.2264917946085916
id-1356_AU12-33_AU43-33	1	1	1	2	8	test_extra	id-1356_AU12-33_AU43-33	emotion	Verdrietig	0.4018885241079602	0.8789681425696472
id-1335_AU43-66_AU5-66	1	1	1	2	9	test	id-1335_AU43-66_AU5-66	emotion	Geen van allen	0.0	1.2115199669678989
id-1291_AU20-33_AU24-100_AU25-33_AU27i-100	1	1	1	2	10	test	id-1291_AU20-33_AU24-100_AU25-33_AU27i-100	emotion	Verrassing	0.6123959983736104	1.2281009966754937
id-1315_AU12-66_AU25-66_AU6-33_AU7-100	1	1	1	2	11	test_extra	id-1315_AU12-66_AU25-66_AU6-33_AU7-100	emotion	Walging	0.3989374106872698	1.961425032794068
id-1291_AU2-66_AU43-100_AU9-100	1	1	1	2	12	train	id-1291_AU2-66_AU43-100_AU9-100	emotion	Bang	0.18098986996215927	1.5531637377425795
id-1373_AU1-33_AU26-100_AU27i-66_AU7-66	1	1	1	2	13	test_extra	id-1373_AU1-33_AU26-100_AU27i-66_AU7-66	emotion	Bang	0.9732687504628512	1.086414241395687
id-1344_AU2-33_AU20-100_AU24-100	1	1	1	2	14	test	id-1344_AU2-33_AU20-100_AU24-100	emotion	Bang	0.07862128305825089	3.1115988121273404
id-1341_AU24-66_AU4-66_AU9-66	1	1	1	2	15	test_extra	id-1341_AU24-66_AU4-66_AU9-66	emotion	Boos	0.09572687568740416	3.2283331250509946
id-1363_AU10Open-33_AU14-66_AU9-33	1	1	1	2	16	test_extra	id-1363_AU10Open-33_AU14-66_AU9-33	emotion	Blij	0.22432946786745447	1.8031415512195963
id-1291_AU4-100_AU43-33_AU7-66	1	1	1	2	17	test	id-1291_AU4-100_AU43-33_AU7-66	emotion	Verrassing	0.4238794525957814	0.7196375174971763
id-1344_AU1-66_AU6-100	1	1	1	2	18	train	id-1344_AU1-66_AU6-100	emotion	Walging	0.0902103342241874	3.7203957834135513
id-1285_AU11-100_AU16Open-33_AU27i-33_AU9-100	1	1	1	2	19	test_extra	id-1285_AU11-100_AU16Open-33_AU27i-33_AU9-100	emotion	Bang	0.6045575528990096	1.1782486351512491
id-1273_AU1-100_AU14-66_AU25-33_AU5-100	1	1	1	2	20	train	id-1273_AU1-100_AU14-66_AU25-33_AU5-100	emotion	Blij	0.20825375104977736	0.6363616880080372
id-1342_AU1-100_AU27i-33	1	1	1	2	21	test_extra	id-1342_AU1-100_AU27i-33	emotion	Boos	0.6385098143581437	0.7030006441636942
id-1377_AU2-66_AU25-100_AU9-100	1	1	1	2	22	train	id-1377_AU2-66_AU25-100_AU9-100	emotion	Walging	0.5888229431814463	1.1031389552481414
id-1293_AU10Open-66_AU26-100_AU27i-66_AU6-100	1	1	1	2	23	test_extra	id-1293_AU10Open-66_AU26-100_AU27i-66_AU6-100	emotion	Bang	0.9502749936824088	1.4364134263778396
id-1360_AU2-100_AU26-33	1	1	1	2	24	test_extra	id-1360_AU2-100_AU26-33	emotion	Bang	0.2437320477785395	1.2363492514850805
id-1367_AU43-100	1	1	1	2	25	test_extra	id-1367_AU43-100	emotion	Geen van allen	0.0	0.7613321814460505
id-1378_AU1-66_AU20-66_AU7-33	1	1	1	2	26	test	id-1378_AU1-66_AU20-66_AU7-33	emotion	Blij	0.11377983697310595	2.8699902982989443
id-1380_AU1-66_AU14-100_AU17-66_AU9-33	1	1	1	2	27	test_extra	id-1380_AU1-66_AU14-100_AU17-66_AU9-33	emotion	Blij	0.6573572565160385	0.6862092198098253
id-1345_AU17-66_AU25-66_AU6-100	1	1	1	2	28	test	id-1345_AU17-66_AU25-66_AU6-100	emotion	Walging	0.12042116362524488	1.0113679515525291
id-1307_AU16Open-33_AU2-100_AU5-33_AU6-66	1	1	1	2	29	train	id-1307_AU16Open-33_AU2-100_AU5-33_AU6-66	emotion	Verrassing	0.08145283679841446	0.9945695844799048
id-1361_AU1-66_AU17-66_AU6-66_AU7-100	1	1	1	2	30	test_extra	id-1361_AU1-66_AU17-66_AU6-66_AU7-100	emotion	Verdrietig	0.05789204467619213	2.5451011252662283
id-1323_AU13-100_AU20-33_AU6-100	1	1	1	2	31	test_extra	id-1323_AU13-100_AU20-33_AU6-100	emotion	Verdrietig	0.3284469308574189	1.0448762414634984
id-1323_AU2-33_AU22-66	1	1	1	2	32	test_extra	id-1323_AU2-33_AU22-66	emotion	Blij	0.13895618625109646	0.6530682904194691
id-1335_AU1-33_AU14-66_AU27i-66_AU7-100	1	1	1	2	33	test_extra	id-1335_AU1-33_AU14-66_AU27i-66_AU7-100	emotion	Blij	0.9518262117413536	0.7865532769319543
id-1345_AU12-66_AU20-100	1	1	1	2	34	test_extra	id-1345_AU12-66_AU20-100	emotion	Blij	0.17201269952832873	1.0031800682299945
id-1273_AU15-100_AU2-100	1	1	1	2	35	train	id-1273_AU15-100_AU2-100	emotion	Blij	0.5087900367461514	0.5447639504927793
id-1354_AU10Open-33_AU17-66_AU6-66_AU7-100	1	1	1	2	36	test_extra	id-1354_AU10Open-33_AU17-66_AU6-66_AU7-100	emotion	Walging	0.6196835671630843	0.7282516235427465
id-1279_AU1-33_AU14-33_AU26-33	1	1	1	3	1	test_extra	id-1279_AU1-33_AU14-33_AU26-33	emotion	Blij	0.18995244256778587	2.1114391295413952
id-1294_AU11-66_AU20-33_AU25-33	1	1	1	3	2	test	id-1294_AU11-66_AU20-33_AU25-33	emotion	Blij	0.051074625057273185	1.028029275341396
id-1310_AU10Open-33_AU16Open-33_AU20-66_AU26-100	1	1	1	3	3	test_extra	id-1310_AU10Open-33_AU16Open-33_AU20-66_AU26-100	emotion	Boos	0.4350329171655689	0.9113900475167612
id-1285_AU26-33_AU5-100	1	1	1	3	4	train	id-1285_AU26-33_AU5-100	emotion	Verrassing	0.5377872939282677	3.1866994363117565
id-1311_AU20-33_AU22-100_AU24-66_AU5-66	1	1	1	3	5	test_extra	id-1311_AU20-33_AU22-100_AU24-66_AU5-66	emotion	Verdrietig	0.15951029881778278	2.045035924053081
id-1311_AU10Open-66_AU16Open-66_AU25-100_AU26-33	1	1	1	3	6	test_extra	id-1311_AU10Open-66_AU16Open-66_AU25-100_AU26-33	emotion	Verrassing	0.2424073861888888	1.111388719342358
id-1347_AU13-33_AU22-33_AU43-100	1	1	1	3	7	test_extra	id-1347_AU13-33_AU22-33_AU43-100	emotion	Walging	0.17552609562208454	1.5196681258457831
id-1260_AU12-66_AU25-33	1	1	1	3	8	test	id-1260_AU12-66_AU25-33	emotion	Blij	0.14630050030336594	1.0865328713698543
id-1363_AU7-66	1	1	1	3	9	test_extra	id-1363_AU7-66	emotion	Geen van allen	0.0	1.3448896439367672
id-1373_AU11-33_AU13-100_AU16Open-66_AU43-33	1	1	1	3	10	test	id-1373_AU11-33_AU13-100_AU16Open-66_AU43-33	emotion	Bang	0.09476748109536212	3.228446925309982
id-1347_AU10Open-33	1	1	1	3	11	test_extra	id-1347_AU10Open-33	emotion	Walging	0.11422747732765486	1.8198092140155493
id-1269_AU11-100_AU25-33_AU43-66	1	1	1	3	12	test_extra	id-1269_AU11-100_AU25-33_AU43-66	emotion	Walging	0.09584176741400184	1.5948879837160348
id-1344_AU16Open-33	1	1	1	3	13	train	id-1344_AU16Open-33	emotion	Boos	0.6653204327199117	0.9364931167438044
id-1345_AU17-100_AU20-33	1	1	1	3	14	test_extra	id-1345_AU17-100_AU20-33	emotion	Bang	0.08312831601280346	1.6950889604086117
id-1290_AU12-66_AU15-33_AU24-33	1	1	1	3	15	test_extra	id-1290_AU12-66_AU15-33_AU24-33	emotion	Boos	0.4186481338898307	1.5283670538265142
id-1376_AU12-33_AU17-100_AU22-100_AU26-100	1	1	1	3	16	train	id-1376_AU12-33_AU17-100_AU22-100_AU26-100	emotion	Blij	0.3512959485297887	0.8150371495939908
id-1370_AU1-33_AU26-66_AU7-100	1	1	1	3	17	test_extra	id-1370_AU1-33_AU26-66_AU7-100	emotion	Blij	0.7468412155132785	0.7280937520918087
id-1360_AU1-66_AU14-66_AU15-66	1	1	1	3	18	train	id-1360_AU1-66_AU14-66_AU15-66	emotion	Verdrietig	0.08355045405476129	2.9949523397299345
id-1363_AU16Open-66_AU4-33_AU6-66_AU9-100	1	1	1	3	19	test_extra	id-1363_AU16Open-66_AU4-33_AU6-66_AU9-100	emotion	Boos	0.443896243712184	0.9368004076277427
id-1335_AU11-66_AU17-66_AU25-66_AU6-33	1	1	1	3	20	test_extra	id-1335_AU11-66_AU17-66_AU25-66_AU6-33	emotion	Boos	0.16219555965060306	0.9865836437929828
id-1306_AU24-66_AU43-100_AU7-100	1	1	1	3	21	test	id-1306_AU24-66_AU43-100_AU7-100	emotion	Walging	0.1333802332357227	0.6031386533904879
id-1266_AU1-66_AU12-100_AU24-100	1	1	1	3	22	test_extra	id-1266_AU1-66_AU12-100_AU24-100	emotion	Verdrietig	0.22048024963306506	2.61169389722636
id-1358_AU12-33_AU25-33_AU6-33_AU9-33	1	1	1	3	23	test_extra	id-1358_AU12-33_AU25-33_AU6-33_AU9-33	emotion	Walging	0.14116808340039874	1.1030640946009953
id-1290_AU10Open-33_AU14-66_AU24-66	1	1	1	3	24	test	id-1290_AU10Open-33_AU14-66_AU24-66	emotion	Boos	0.8529265096052457	0.7553309534887376
id-1296_AU15-66_AU24-66	1	1	1	3	25	train	id-1296_AU15-66_AU24-66	emotion	Walging	0.06858134444264086	1.311360224000964
id-1377_AU13-66_AU14-100_AU9-66	1	1	1	3	26	test_extra	id-1377_AU13-66_AU14-100_AU9-66	emotion	Boos	0.26246868855244426	1.1197429261192156
id-1370_AU2-33_AU27i-66	1	1	1	3	27	test_extra	id-1370_AU2-33_AU27i-66	emotion	Blij	0.4695011704239991	0.9530572424337151
id-1366_AU12-100	1	1	1	3	28	test_extra	id-1366_AU12-100	emotion	Blij	0.4383064656003219	0.7033003886135702
id-1296_AU1-66_AU17-100_AU27i-33_AU4-66_AU5-100	1	1	1	3	29	test	id-1296_AU1-66_AU17-100_AU27i-33_AU4-66_AU5-100	emotion	Bang	0.6075492756987896	0.8232953657061444
id-1279_AU1-100_AU15-66_AU16Open-66_AU27i-100_AU43-33	1	1	1	3	30	test_extra	id-1279_AU1-100_AU15-66_AU16Open-66_AU27i-100_AU43-33	emotion	Bang	0.5260685358293657	1.3198716985098145
id-1302_AU13-66_AU22-33	1	1	1	3	31	train	id-1302_AU13-66_AU22-33	emotion	Bang	0.382390811009508	0.6947182794610853
id-1339_AU22-33_AU25-100_AU27i-100_AU4-66	1	1	1	3	32	test_extra	id-1339_AU22-33_AU25-100_AU27i-100_AU4-66	emotion	Bang	0.720058368932523	1.6489687643952493
id-1376_AU1-100_AU13-33_AU14-33_AU27i-66	1	1	1	3	33	test	id-1376_AU1-100_AU13-33_AU14-33_AU27i-66	emotion	Verrassing	0.3108375913802985	1.2779962219501613
id-1273_AU15-66_AU20-66_AU5-66	1	1	1	3	34	train	id-1273_AU15-66_AU20-66_AU5-66	emotion	Verdrietig	0.17517344067203836	2.2614203238190385
id-1344_AU13-100_AU16Open-66_AU43-100	1	1	1	3	35	test_extra	id-1344_AU13-100_AU16Open-66_AU43-100	emotion	Walging	0.1428775208094949	0.7198325174140336
id-1354_AU14-100_AU2-100_AU20-100_AU4-66	1	1	1	3	36	train	id-1354_AU14-100_AU2-100_AU20-100_AU4-66	emotion	Verdrietig	0.1963077978539296	0.6864135773066664
id-1362_AU5-33_AU6-66_AU7-33	1	1	1	4	1	test	id-1362_AU5-33_AU6-66_AU7-33	emotion	Walging	0.09624349307192076	4.611767248588876
id-1341_AU14-33_AU4-100_AU7-66	1	1	1	4	2	test_extra	id-1341_AU14-33_AU4-100_AU7-66	emotion	Verrassing	0.19610005542632766	2.0365537297220726
id-1380_AU13-66_AU20-66_AU22-100_AU5-100	1	1	1	4	3	test_extra	id-1380_AU13-66_AU20-66_AU22-100_AU5-100	emotion	Blij	0.2035189169264778	0.6529943353416456
id-1370_AU17-66_AU20-66_AU26-66_AU5-100	1	1	1	4	4	train	id-1370_AU17-66_AU20-66_AU26-66_AU5-100	emotion	Verrassing	0.3078815339577283	1.5146696683368646
id-1345_AU11-100_AU20-66	1	1	1	4	5	train	id-1345_AU11-100_AU20-66	emotion	Boos	0.12706631333594126	1.1530522919747457
id-1376_AU10Open-100_AU11-66_AU25-33_AU27i-66_AU9-100	1	1	1	4	6	test_extra	id-1376_AU10Open-100_AU11-66_AU25-33_AU27i-66_AU9-100	emotion	Boos	0.6614819341538025	0.7531910860307107
id-1293_AU22-66_AU25-100_AU5-33_AU9-33	1	1	1	4	7	test	id-1293_AU22-66_AU25-100_AU5-33_AU9-33	emotion	Walging	0.7292881423340685	0.7195050020782219
id-1358_AU15-66_AU2-33_AU26-66	1	1	1	4	8	test_extra	id-1358_AU15-66_AU2-33_AU26-66	emotion	Walging	0.1403179805026519	0.6113639670329576
id-1342_AU1-33_AU20-66_AU7-33	1	1	1	4	9	train	id-1342_AU1-33_AU20-66_AU7-33	emotion	Boos	0.2193492460002444	0.6780741615439183
id-1378_AU14-66_AU16Open-66	1	1	1	4	10	train	id-1378_AU14-66_AU16Open-66	emotion	Blij	0.267683500685026	0.977994893779396
id-1285_AU11-33_AU20-66_AU4-66	1	1	1	4	11	train	id-1285_AU11-33_AU20-66_AU4-66	emotion	Verdrietig	0.2447471763069944	0.8780465717754851
id-1274_AU14-100_AU26-33	1	1	1	4	12	train	id-1274_AU14-100_AU26-33	emotion	Bang	0.3297748454777725	2.0033077539337683
id-1323_AU11-66_AU4-33_AU5-100_AU9-66	1	1	1	4	13	train	id-1323_AU11-66_AU4-33_AU5-100_AU9-66	emotion	Walging	0.1630654661242378	0.7695671545297955
id-1341_AU27i-66_AU43-33	1	1	1	4	14	train	id-1341_AU27i-66_AU43-33	emotion	Boos	0.29018353882251496	0.8782104803722177
id-1318_AU22-100_AU26-100_AU27i-33_AU4-33_AU6-33	1	1	1	4	15	test	id-1318_AU22-100_AU26-100_AU27i-33_AU4-33_AU6-33	emotion	Boos	0.5301481644382168	1.4198649972713608
id-1380_AU10Open-33_AU13-33_AU16Open-100_AU22-33_AU43-66	1	1	1	4	16	test	id-1380_AU10Open-33_AU13-33_AU16Open-100_AU22-33_AU43-66	emotion	Blij	0.21699865363353324	1.8531692919204945
id-1285_AU12-33_AU17-100_AU26-100_AU43-66	1	1	1	4	17	train	id-1285_AU12-33_AU17-100_AU26-100_AU43-66	emotion	Verrassing	0.22323541020703228	3.0950123489892576
id-1310_AU12-33_AU14-33_AU22-100_AU6-100	1	1	1	4	18	test	id-1310_AU12-33_AU14-33_AU22-100_AU6-100	emotion	Blij	0.8498263847064468	0.6113361961470218
id-1362_AU1-100_AU26-66	1	1	1	4	19	test_extra	id-1362_AU1-100_AU26-66	emotion	Bang	0.4137247612822269	3.220847965872963
id-1367_AU1-66_AU10Open-66_AU15-33_AU6-100	1	1	1	4	20	train	id-1367_AU1-66_AU10Open-66_AU15-33_AU6-100	emotion	Walging	0.03296500924574638	0.7449630556657212
id-1363_AU14-66	1	1	1	4	21	test_extra	id-1363_AU14-66	emotion	Walging	0.21410600200533025	0.8530983554192062
id-1280_AU11-33_AU16Open-66_AU25-66_AU7-33	1	1	1	4	22	train	id-1280_AU11-33_AU16Open-66_AU25-66_AU7-33	emotion	Boos	0.0916929294688938	0.5447992678164155
id-1341_AU12-33_AU2-66_AU20-33_AU24-66_AU5-33	1	1	1	4	23	test_extra	id-1341_AU12-33_AU2-66_AU20-33_AU24-66_AU5-33	emotion	Boos	0.09700699158575896	0.7531445999811694
id-1293_AU10Open-100_AU11-33_AU14-33_AU22-33_AU27i-33	1	1	1	4	24	train	id-1293_AU10Open-100_AU11-33_AU14-33_AU22-33_AU27i-33	emotion	Bang	0.11062612140771796	2.694905732936604
id-1289_AU1-100_AU13-100_AU4-33	1	1	1	4	25	train	id-1289_AU1-100_AU13-100_AU4-33	emotion	Verdrietig	0.2391882714758926	5.4036564596572125
id-1273_AU12-100_AU16Open-33_AU20-100_AU22-66_AU5-66	1	1	1	4	26	test	id-1273_AU12-100_AU16Open-33_AU20-100_AU22-66_AU5-66	emotion	Boos	0.2445639048554885	3.5866279564652364
id-1310_AU10Open-100_AU2-66_AU9-100	1	1	1	4	27	train	id-1310_AU10Open-100_AU2-66_AU9-100	emotion	Boos	0.5854294147726073	0.7031108221344766
id-1354_AU1-66_AU10Open-100	1	1	1	4	28	test	id-1354_AU1-66_AU10Open-100	emotion	Boos	0.6550914788212364	0.8781368271520478
id-1341_AU15-66_AU2-100_AU26-33_AU4-66	1	1	1	4	29	test_extra	id-1341_AU15-66_AU2-100_AU26-33_AU4-66	emotion	Verrassing	0.6541674981726623	1.6782247884111712
id-1279_AU12-33_AU4-100_AU5-66_AU7-33	1	1	1	4	30	train	id-1279_AU12-33_AU4-100_AU5-66_AU7-33	emotion	Blij	0.3814380626413005	0.9862721269055328
id-1376_AU27i-66_AU6-100	1	1	1	4	31	train	id-1376_AU27i-66_AU6-100	emotion	Verdrietig	0.09601401078227577	0.9863970958904248
id-1318_AU24-33	1	1	1	4	32	test_extra	id-1318_AU24-33	emotion	Verdrietig	0.4018885241079602	1.3530479452274449
id-1295_AU10Open-33_AU11-66_AU17-33_AU5-100	1	1	1	4	33	train	id-1295_AU10Open-33_AU11-66_AU17-33_AU5-100	emotion	Boos	0.24742583867944185	1.4282204114824708
id-1355_AU26-33_AU7-100	1	1	1	4	34	test_extra	id-1355_AU26-33_AU7-100	emotion	Bang	0.4511052409604092	1.093062953579647
id-1290_AU20-100_AU43-100	1	1	1	4	35	train	id-1290_AU20-100_AU43-100	emotion	Walging	0.07446793748411777	0.9011591929775022
id-1293_AU17-66_AU22-100_AU26-100_AU5-100	1	1	1	4	36	test_extra	id-1293_AU17-66_AU22-100_AU26-100_AU5-100	emotion	Verrassing	0.24320514915950955	0.9530816928891
id-1315_AU12-66_AU25-66_AU6-33_AU7-100	1	1	2	5	1	test_extra	id-1315_AU12-66_AU25-66_AU6-33_AU7-100	valence	-0.28261447804558665		2.3189078676732606
id-1315_AU12-66_AU25-66_AU6-33_AU7-100	1	1	2	5	1	test_extra	id-1315_AU12-66_AU25-66_AU6-33_AU7-100	arousal	0.1820689425870606		2.3189078676732606
id-1377_AU2-66_AU25-100_AU9-100	1	1	2	5	2	train	id-1377_AU2-66_AU25-100_AU9-100	valence	-0.4782706551540697		0.7186742903795675
id-1377_AU2-66_AU25-100_AU9-100	1	1	2	5	2	train	id-1377_AU2-66_AU25-100_AU9-100	arousal	0.057066384989974225		0.7186742903795675
id-1376_AU14-33_AU17-33_AU2-100_AU27i-33_AU43-66	1	1	2	5	3	test_extra	id-1376_AU14-33_AU17-33_AU2-100_AU27i-33_AU43-66	valence	0.1657642611613537		0.601856664801744
id-1376_AU14-33_AU17-33_AU2-100_AU27i-33_AU43-66	1	1	2	5	3	test_extra	id-1376_AU14-33_AU17-33_AU2-100_AU27i-33_AU43-66	arousal	0.08695830093710358		0.601856664801744
id-1307_AU10Open-66_AU17-33_AU22-33_AU9-100	1	1	2	5	4	test	id-1307_AU10Open-66_AU17-33_AU22-33_AU9-100	valence	-0.3043540532798626		0.5353013231615478
id-1307_AU10Open-66_AU17-33_AU22-33_AU9-100	1	1	2	5	4	test	id-1307_AU10Open-66_AU17-33_AU22-33_AU9-100	arousal	0.3777251196955437		0.5353013231615478
id-1302_AU26-100	1	1	2	5	5	train	id-1302_AU26-100	valence	-0.418486823259811		0.4852364539983682
id-1302_AU26-100	1	1	2	5	5	train	id-1302_AU26-100	arousal	0.5434893808568974		0.4852364539983682
id-1307_AU16Open-33_AU2-100_AU5-33_AU6-66	1	1	2	5	6	train	id-1307_AU16Open-33_AU2-100_AU5-33_AU6-66	valence	-0.05163149118140525		0.6354449469363317
id-1307_AU16Open-33_AU2-100_AU5-33_AU6-66	1	1	2	5	6	train	id-1307_AU16Open-33_AU2-100_AU5-33_AU6-66	arousal	0.04891404427712077		0.6354449469363317
id-1354_AU10Open-33_AU17-66_AU6-66_AU7-100	1	1	2	5	7	test_extra	id-1354_AU10Open-33_AU17-66_AU6-66_AU7-100	valence	-0.7228408765396734		0.6018844356840418
id-1354_AU10Open-33_AU17-66_AU6-66_AU7-100	1	1	2	5	7	test_extra	id-1354_AU10Open-33_AU17-66_AU6-66_AU7-100	arousal	0.013587234521422437		0.6018844356840418
id-1273_AU15-100_AU2-100	1	1	2	5	8	train	id-1273_AU15-100_AU2-100	valence	0.3369634161312764		0.6437122187671775
id-1273_AU15-100_AU2-100	1	1	2	5	8	train	id-1273_AU15-100_AU2-100	arousal	0.03804425665998282		0.6437122187671775
id-1361_AU7-66	1	1	2	5	9	test_extra	id-1361_AU7-66	valence	0.0		0.3937156901301933
id-1361_AU7-66	1	1	2	5	9	test_extra	id-1361_AU7-66	arousal	0.0		0.3937156901301933
id-1291_AU2-66_AU43-100_AU9-100	1	1	2	5	10	train	id-1291_AU2-66_AU43-100_AU9-100	valence	0.0407617035642673		1.5770651124621509
id-1291_AU2-66_AU43-100_AU9-100	1	1	2	5	10	train	id-1291_AU2-66_AU43-100_AU9-100	arousal	0.14130723902279332		1.5770651124621509
id-1344_AU1-66_AU6-100	1	1	2	5	11	train	id-1344_AU1-66_AU6-100	valence	-0.4510961861112248		0.8437803178057948
id-1344_AU1-66_AU6-100	1	1	2	5	11	train	id-1344_AU1-66_AU6-100	arousal	0.0407617035642673		0.8437803178057948
id-1273_AU12-100_AU16Open-100_AU5-66	1	1	2	5	12	train	id-1273_AU12-100_AU16Open-100_AU5-66	valence	-0.19837362401276756		1.7354545460038937
id-1273_AU12-100_AU16Open-100_AU5-66	1	1	2	5	12	train	id-1273_AU12-100_AU16Open-100_AU5-66	arousal	0.29891915947129355		1.7354545460038937
id-1360_AU2-100_AU26-33	1	1	2	5	13	test_extra	id-1360_AU2-100_AU26-33	valence	-0.06521872570282768		0.6769452146836556
id-1360_AU2-100_AU26-33	1	1	2	5	13	test_extra	id-1360_AU2-100_AU26-33	arousal	-0.1440246859270778		0.6769452146836556
id-1345_AU12-66_AU20-100	1	1	2	5	14	test_extra	id-1345_AU12-66_AU20-100	valence	-0.5489242746654663		0.6352233835677907
id-1345_AU12-66_AU20-100	1	1	2	5	14	test_extra	id-1345_AU12-66_AU20-100	arousal	0.05978383189425871		0.6352233835677907
id-1361_AU1-66_AU17-66_AU6-66_AU7-100	1	1	2	5	15	test_extra	id-1361_AU1-66_AU17-66_AU6-66_AU7-100	valence	0.21196085853419		0.3686476363654947
id-1361_AU1-66_AU17-66_AU6-66_AU7-100	1	1	2	5	15	test_extra	id-1361_AU1-66_AU17-66_AU6-66_AU7-100	arousal	0.024457022138560384		0.3686476363654947
id-1342_AU1-100_AU27i-33	1	1	2	5	16	test_extra	id-1342_AU1-100_AU27i-33	valence	-0.00815234071285346		0.6436467157036532
id-1342_AU1-100_AU27i-33	1	1	2	5	16	test_extra	id-1342_AU1-100_AU27i-33	arousal	0.0		0.6436467157036532
id-1367_AU43-100	1	1	2	5	17	test_extra	id-1367_AU43-100	valence	0.0		0.3107115323437029
id-1367_AU43-100	1	1	2	5	17	test_extra	id-1367_AU43-100	arousal	0.0		0.3107115323437029
id-1373_AU1-33_AU26-100_AU27i-66_AU7-66	1	1	2	5	18	test_extra	id-1373_AU1-33_AU26-100_AU27i-66_AU7-66	valence	-0.8288213058067685		0.8769719592528418
id-1373_AU1-33_AU26-100_AU27i-66_AU7-66	1	1	2	5	18	test_extra	id-1373_AU1-33_AU26-100_AU27i-66_AU7-66	arousal	0.5462068277611818		0.8769719592528418
id-1335_AU1-33_AU14-66_AU27i-66_AU7-100	1	1	2	5	19	test_extra	id-1335_AU1-33_AU14-66_AU27i-66_AU7-100	valence	0.4266391639726645		0.6355158834339818
id-1335_AU1-33_AU14-66_AU27i-66_AU7-100	1	1	2	5	19	test_extra	id-1335_AU1-33_AU14-66_AU27i-66_AU7-100	arousal	0.17663404877849165		0.6355158834339818
id-1344_AU2-33_AU20-100_AU24-100	1	1	2	5	20	test	id-1344_AU2-33_AU20-100_AU24-100	valence	-0.7826247084339323		0.7270158191422524
id-1344_AU2-33_AU20-100_AU24-100	1	1	2	5	20	test	id-1344_AU2-33_AU20-100_AU24-100	arousal	0.0625012787985432		0.7270158191422524
id-1323_AU2-33_AU22-66	1	1	2	5	21	test_extra	id-1323_AU2-33_AU22-66	valence	0.11685021688423293		0.5352660058415495
id-1323_AU2-33_AU22-66	1	1	2	5	21	test_extra	id-1323_AU2-33_AU22-66	arousal	0.15761192044850025		0.5352660058415495
id-1291_AU20-33_AU24-100_AU25-33_AU27i-100	1	1	2	5	22	test	id-1291_AU20-33_AU24-100_AU25-33_AU27i-100	valence	-0.201091070917052		1.6854322387371212
id-1291_AU20-33_AU24-100_AU25-33_AU27i-100	1	1	2	5	22	test	id-1291_AU20-33_AU24-100_AU25-33_AU27i-100	arousal	0.04619659737283628		1.6854322387371212
id-1356_AU12-33_AU43-33	1	1	2	5	23	test_extra	id-1356_AU12-33_AU43-33	valence	0.1711991549699227		0.8020385641029861
id-1356_AU12-33_AU43-33	1	1	2	5	23	test_extra	id-1356_AU12-33_AU43-33	arousal	0.0		0.8020385641029861
id-1335_AU43-66_AU5-66	1	1	2	5	24	test	id-1335_AU43-66_AU5-66	valence	0.08695830093710358		0.7186030520206259
id-1335_AU43-66_AU5-66	1	1	2	5	24	test	id-1335_AU43-66_AU5-66	arousal	0.02717446904284487		0.7186030520206259
id-1380_AU1-66_AU14-100_AU17-66_AU9-33	1	1	2	5	25	test_extra	id-1380_AU1-66_AU14-100_AU17-66_AU9-33	valence	-0.7282757703482424		0.6019303180219139
id-1380_AU1-66_AU14-100_AU17-66_AU9-33	1	1	2	5	25	test_extra	id-1380_AU1-66_AU14-100_AU17-66_AU9-33	arousal	0.3260936285141384		0.6019303180219139
id-1345_AU17-66_AU25-66_AU6-100	1	1	2	5	26	test	id-1345_AU17-66_AU25-66_AU6-100	valence	-0.21467830543847446		0.8603839868228533
id-1345_AU17-66_AU25-66_AU6-100	1	1	2	5	26	test	id-1345_AU17-66_AU25-66_AU6-100	arousal	0.07337106641568114		0.8603839868228533
id-1341_AU24-66_AU4-66_AU9-66	1	1	2	5	27	test_extra	id-1341_AU24-66_AU4-66_AU9-66	valence	-0.4429438453983714		0.5519104256127321
id-1341_AU24-66_AU4-66_AU9-66	1	1	2	5	27	test_extra	id-1341_AU24-66_AU4-66_AU9-66	arousal	0.2364178806727504		0.5519104256127321
id-1291_AU4-100_AU43-33_AU7-66	1	1	2	5	28	test	id-1291_AU4-100_AU43-33_AU7-66	valence	-0.100545535458526		0.4854851845338999
id-1291_AU4-100_AU43-33_AU7-66	1	1	2	5	28	test	id-1291_AU4-100_AU43-33_AU7-66	arousal	0.07065361951139666		0.4854851845338999
id-1378_AU1-66_AU20-66_AU7-33	1	1	2	5	29	test	id-1378_AU1-66_AU20-66_AU7-33	valence	0.1711991549699227		0.48544896164094103
id-1378_AU1-66_AU20-66_AU7-33	1	1	2	5	29	test	id-1378_AU1-66_AU20-66_AU7-33	arousal	-0.12228511069280193		0.48544896164094103
id-1285_AU11-100_AU16Open-33_AU27i-33_AU9-100	1	1	2	5	30	test_extra	id-1285_AU11-100_AU16Open-33_AU27i-33_AU9-100	valence	-0.6630570446454148		0.8270435296544747
id-1285_AU11-100_AU16Open-33_AU27i-33_AU9-100	1	1	2	5	30	test_extra	id-1285_AU11-100_AU16Open-33_AU27i-33_AU9-100	arousal	0.5706638498997423		0.8270435296544747
id-1273_AU1-100_AU14-66_AU25-33_AU5-100	1	1	2	5	31	train	id-1273_AU1-100_AU14-66_AU25-33_AU5-100	valence	0.3451157568441299		2.6773352145100944
id-1273_AU1-100_AU14-66_AU25-33_AU5-100	1	1	2	5	31	train	id-1273_AU1-100_AU14-66_AU25-33_AU5-100	arousal	0.15761192044850025		2.6773352145100944
id-1363_AU10Open-33_AU14-66_AU9-33	1	1	2	5	32	test_extra	id-1363_AU10Open-33_AU14-66_AU9-33	valence	-0.7309932172525271		1.3353859639901202
id-1363_AU10Open-33_AU14-66_AU9-33	1	1	2	5	32	test_extra	id-1363_AU10Open-33_AU14-66_AU9-33	arousal	0.3097889470884315		1.3353859639901202
id-1293_AU10Open-66_AU26-100_AU27i-66_AU6-100	1	1	2	5	33	test_extra	id-1293_AU10Open-66_AU26-100_AU27i-66_AU6-100	valence	-0.9184970536481566		1.035424782858172
id-1293_AU10Open-66_AU26-100_AU27i-66_AU6-100	1	1	2	5	33	test_extra	id-1293_AU10Open-66_AU26-100_AU27i-66_AU6-100	arousal	0.8261038589024841		1.035424782858172
id-1270_AU5-33_AU7-100	1	1	2	5	34	test_extra	id-1270_AU5-33_AU7-100	valence	-0.013587234521422437		0.8021387807748397
id-1270_AU5-33_AU7-100	1	1	2	5	34	test_extra	id-1270_AU5-33_AU7-100	arousal	0.1440246859270778		0.8021387807748397
id-1302_AU17-66_AU27i-100_AU4-100_AU6-33_AU7-100	1	1	2	5	35	test_extra	id-1302_AU17-66_AU27i-100_AU4-100_AU6-33_AU7-100	valence	-0.5353370401440439		0.7944414158082509
id-1302_AU17-66_AU27i-100_AU4-100_AU6-33_AU7-100	1	1	2	5	35	test_extra	id-1302_AU17-66_AU27i-100_AU4-100_AU6-33_AU7-100	arousal	0.7445804517739495		0.7944414158082509
id-1323_AU13-100_AU20-33_AU6-100	1	1	2	5	36	test_extra	id-1323_AU13-100_AU20-33_AU6-100	valence	0.17663404877849165		0.968746887094312
id-1323_AU13-100_AU20-33_AU6-100	1	1	2	5	36	test_extra	id-1323_AU13-100_AU20-33_AU6-100	arousal	0.13858979211850886		0.968746887094312
id-1307_AU13-66_AU14-66_AU43-33	1	1	2	6	1	train	id-1307_AU13-66_AU14-66_AU43-33	valence	-0.1521770266399313		0.5686487230559578
id-1307_AU13-66_AU14-66_AU43-33	1	1	2	6	1	train	id-1307_AU13-66_AU14-66_AU43-33	arousal	0.05163149118140525		0.5686487230559578
id-1302_AU1-33_AU14-100_AU27i-100_AU9-100	1	1	2	6	2	train	id-1302_AU1-33_AU14-100_AU27i-100_AU9-100	valence	-0.5163149118140525		0.5769277673243778
id-1302_AU1-33_AU14-100_AU27i-100_AU9-100	1	1	2	6	2	train	id-1302_AU1-33_AU14-100_AU27i-100_AU9-100	arousal	0.4347915046855179		0.5769277673243778
id-1302_AU10Open-33_AU14-100_AU24-33_AU43-100	1	1	2	6	3	train	id-1302_AU10Open-33_AU14-100_AU24-33_AU43-100	valence	-0.4864229958669232		0.9770096310639927
id-1302_AU10Open-33_AU14-100_AU24-33_AU43-100	1	1	2	6	3	train	id-1302_AU10Open-33_AU14-100_AU24-33_AU43-100	arousal	0.1032629823628105		0.9770096310639927
id-1323_AU26-33	1	1	2	6	4	test_extra	id-1323_AU26-33	valence	-0.6059906596554406		1.0438849415986624
id-1323_AU26-33	1	1	2	6	4	test_extra	id-1323_AU26-33	arousal	0.13315489830993985		1.0438849415986624
id-1297_AU14-66_AU25-100	1	1	2	6	5	train	id-1297_AU14-66_AU25-100	valence	-0.5326195932397594		0.9188269095066062
id-1297_AU14-66_AU25-100	1	1	2	6	5	train	id-1297_AU14-66_AU25-100	arousal	0.09239319474567256		0.9188269095066062
id-1310_AU15-66_AU25-100_AU4-100_AU43-33	1	1	2	6	6	test_extra	id-1310_AU15-66_AU25-100_AU4-100_AU43-33	valence	-0.11413276997994845		0.5603292298837914
id-1310_AU15-66_AU25-100_AU4-100_AU43-33	1	1	2	6	6	test_extra	id-1310_AU15-66_AU25-100_AU4-100_AU43-33	arousal	0.05434893808568974		0.5603292298837914
id-1279_AU1-33_AU10Open-33_AU24-33	1	1	2	6	7	train	id-1279_AU1-33_AU10Open-33_AU24-33	valence	0.2092434116299055		0.6520446918075322
id-1279_AU1-33_AU10Open-33_AU24-33	1	1	2	6	7	train	id-1279_AU1-33_AU10Open-33_AU24-33	arousal	0.1277200045013709		0.6520446918075322
id-1362_AU11-33_AU13-66_AU17-33_AU2-100_AU22-33	1	1	2	6	8	test_extra	id-1362_AU11-33_AU13-66_AU17-33_AU2-100_AU22-33	valence	0.08695830093710358		0.3522287041087111
id-1362_AU11-33_AU13-66_AU17-33_AU2-100_AU22-33	1	1	2	6	8	test_extra	id-1362_AU11-33_AU13-66_AU17-33_AU2-100_AU22-33	arousal	-0.14945957973564675		0.3522287041087111
id-1296_AU12-100_AU14-66_AU17-100	1	1	2	6	9	test_extra	id-1296_AU12-100_AU14-66_AU17-100	valence	-0.4266391639726645		1.285386597890465
id-1296_AU12-100_AU14-66_AU17-100	1	1	2	6	9	test_extra	id-1296_AU12-100_AU14-66_AU17-100	arousal	-0.11956766378851742		1.285386597890465
id-1339_AU14-100_AU15-66_AU26-33	1	1	2	6	10	test_extra	id-1339_AU14-100_AU15-66_AU26-33	valence	0.29348426566272456		1.9187774048841681
id-1339_AU14-100_AU15-66_AU26-33	1	1	2	6	10	test_extra	id-1339_AU14-100_AU15-66_AU26-33	arousal	0.3587029913655523		1.9187774048841681
id-1367_AU16Open-66_AU2-100_AU7-100	1	1	2	6	11	test_extra	id-1367_AU16Open-66_AU2-100_AU7-100	valence	-0.5788161906125957		0.8936610539312824
id-1367_AU16Open-66_AU2-100_AU7-100	1	1	2	6	11	test_extra	id-1367_AU16Open-66_AU2-100_AU7-100	arousal	0.5842510844211647		0.8936610539312824
id-1345_AU12-66	1	1	2	6	12	test_extra	id-1345_AU12-66	valence	-0.15489447354421576		0.6019846523595334
id-1345_AU12-66	1	1	2	6	12	test_extra	id-1345_AU12-66	arousal	-0.07608851331996565		0.6019846523595334
id-1339_AU10Open-100_AU12-33_AU20-100_AU27i-33	1	1	2	6	13	test	id-1339_AU10Open-100_AU12-33_AU20-100_AU27i-33	valence	-0.7364281110610958		0.7936885833296401
id-1339_AU10Open-100_AU12-33_AU20-100_AU27i-33	1	1	2	6	13	test	id-1339_AU10Open-100_AU12-33_AU20-100_AU27i-33	arousal	0.8016468367639237		0.7936885833296401
id-1373_AU15-33_AU16Open-33_AU2-33_AU4-100	1	1	2	6	14	test_extra	id-1373_AU15-33_AU16Open-33_AU2-33_AU4-100	valence	-0.03532680975569833		0.5436120624653995
id-1373_AU15-33_AU16Open-33_AU2-33_AU4-100	1	1	2	6	14	test_extra	id-1373_AU15-33_AU16Open-33_AU2-33_AU4-100	arousal	0.024457022138560384		0.5436120624653995
id-1323_AU14-66_AU24-100_AU25-66_AU5-100_AU6-66	1	1	2	6	15	train	id-1323_AU14-66_AU24-100_AU25-66_AU5-100_AU6-66	valence	-0.7663200270082253		0.760333335143514
id-1323_AU14-66_AU24-100_AU25-66_AU5-100_AU6-66	1	1	2	6	15	train	id-1323_AU14-66_AU24-100_AU25-66_AU5-100_AU6-66	arousal	0.30163660637557804		0.760333335143514
id-1378_AU10Open-100_AU24-66_AU43-100	1	1	2	6	16	train	id-1378_AU10Open-100_AU24-66_AU43-100	valence	-0.201091070917052		0.718677308952465
id-1378_AU10Open-100_AU24-66_AU43-100	1	1	2	6	16	train	id-1378_AU10Open-100_AU24-66_AU43-100	arousal	0.11685021688423293		0.718677308952465
id-1302_AU15-66_AU24-100_AU25-100_AU43-33	1	1	2	6	17	test	id-1302_AU15-66_AU24-100_AU25-100_AU43-33	valence	-0.4755532082497852		2.8356407316787227
id-1302_AU15-66_AU24-100_AU25-100_AU43-33	1	1	2	6	17	test	id-1302_AU15-66_AU24-100_AU25-100_AU43-33	arousal	0.02717446904284487		2.8356407316787227
id-1290_AU2-100_AU20-33_AU24-33_AU25-66_AU6-66	1	1	2	6	18	test_extra	id-1290_AU2-100_AU20-33_AU24-33_AU25-66_AU6-66	valence	-0.04347915046855179		0.7186142207465309
id-1290_AU2-100_AU20-33_AU24-33_AU25-66_AU6-66	1	1	2	6	18	test_extra	id-1290_AU2-100_AU20-33_AU24-33_AU25-66_AU6-66	arousal	0.07337106641568114		0.7186142207465309
id-1291_AU13-66_AU7-33_AU9-66	1	1	2	6	19	test_extra	id-1291_AU13-66_AU7-33_AU9-66	valence	-0.14130723902279332		0.5519946438398621
id-1291_AU13-66_AU7-33_AU9-66	1	1	2	6	19	test_extra	id-1291_AU13-66_AU7-33_AU9-66	arousal	0.057066384989974225		0.5519946438398621
id-1347_AU13-100_AU14-66_AU17-100_AU27i-66_AU7-100	1	1	2	6	20	test	id-1347_AU13-100_AU14-66_AU17-100_AU27i-66_AU7-100	valence	-0.40761703564267293		0.7269877463986631
id-1347_AU13-100_AU14-66_AU17-100_AU27i-66_AU7-100	1	1	2	6	20	test	id-1347_AU13-100_AU14-66_AU17-100_AU27i-66_AU7-100	arousal	0.05434893808568974		0.7269877463986631
id-1296_AU12-66_AU6-66	1	1	2	6	21	test_extra	id-1296_AU12-66_AU6-66	valence	-0.21196085853419		0.5019177003741788
id-1296_AU12-66_AU6-66	1	1	2	6	21	test_extra	id-1296_AU12-66_AU6-66	arousal	0.01630468142570692		0.5019177003741788
id-1297_AU20-33_AU22-33_AU26-66	1	1	2	6	22	test_extra	id-1297_AU20-33_AU22-33_AU26-66	valence	-0.5462068277611818		0.7518758931219054
id-1297_AU20-33_AU22-33_AU26-66	1	1	2	6	22	test_extra	id-1297_AU20-33_AU22-33_AU26-66	arousal	0.09239319474567256		0.7518758931219054
id-1358_AU14-100	1	1	2	6	23	test_extra	id-1358_AU14-100	valence	0.3478332037484143		1.4853520653996384
id-1358_AU14-100	1	1	2	6	23	test_extra	id-1358_AU14-100	arousal	-0.2880493718541556		1.4853520653996384
id-1354_AU6-100	1	1	2	6	24	test_extra	id-1354_AU6-100	valence	-0.11141532307566396		0.8019474031498248
id-1354_AU6-100	1	1	2	6	24	test_extra	id-1354_AU6-100	arousal	-0.44566129230265583		0.8019474031498248
id-1342_AU1-100_AU14-100_AU15-66_AU5-100_AU7-100	1	1	2	6	25	test	id-1342_AU1-100_AU14-100_AU15-66_AU5-100_AU7-100	valence	-0.5000102303883456		0.7438558425383235
id-1342_AU1-100_AU14-100_AU15-66_AU5-100_AU7-100	1	1	2	6	25	test	id-1342_AU1-100_AU14-100_AU15-66_AU5-100_AU7-100	arousal	0.4972927834840611		0.7438558425383235
id-1296_AU12-100_AU9-33	1	1	2	6	26	test_extra	id-1296_AU12-100_AU9-33	valence	0.201091070917052		1.9103048699871576
id-1296_AU12-100_AU9-33	1	1	2	6	26	test_extra	id-1296_AU12-100_AU9-33	arousal	0.14130723902279332		1.9103048699871576
id-1377_AU17-66_AU24-33_AU4-100	1	1	2	6	27	test	id-1377_AU17-66_AU24-33_AU4-100	valence	-0.31522384089700045		1.2354195305379108
id-1377_AU17-66_AU24-33_AU4-100	1	1	2	6	27	test	id-1377_AU17-66_AU24-33_AU4-100	arousal	-0.4945753365797766		1.2354195305379108
id-1356_AU6-33	1	1	2	6	28	test	id-1356_AU6-33	valence	-0.013587234521422437		0.5852560143612209
id-1356_AU6-33	1	1	2	6	28	test	id-1356_AU6-33	arousal	0.02173957523427589		0.5852560143612209
id-1285_AU11-33_AU17-33_AU5-100_AU7-33	1	1	2	6	29	train	id-1285_AU11-33_AU17-33_AU5-100_AU7-33	valence	-0.00815234071285346		0.5687468267242366
id-1285_AU11-33_AU17-33_AU5-100_AU7-33	1	1	2	6	29	train	id-1285_AU11-33_AU17-33_AU5-100_AU7-33	arousal	0.00815234071285346		0.5687468267242366
id-1362_AU12-33_AU20-66_AU26-100	1	1	2	6	30	train	id-1362_AU12-33_AU20-66_AU26-100	valence	0.28261447804558665		0.8437078720198772
id-1362_AU12-33_AU20-66_AU26-100	1	1	2	6	30	train	id-1362_AU12-33_AU20-66_AU26-100	arousal	0.6712093853582682		0.8437078720198772
id-1295_AU22-66_AU4-100	1	1	2	6	31	train	id-1295_AU22-66_AU4-100	valence	-0.0054348938085689745		3.135911316698184
id-1295_AU22-66_AU4-100	1	1	2	6	31	train	id-1295_AU22-66_AU4-100	arousal	0.7364281110610958		3.135911316698184
id-1274_AU22-66_AU24-100	1	1	2	6	32	test_extra	id-1274_AU22-66_AU24-100	valence	0.0027174469042844872		1.001800579688279
id-1274_AU22-66_AU24-100	1	1	2	6	32	test_extra	id-1274_AU22-66_AU24-100	arousal	0.17663404877849165		1.001800579688279
id-1279_AU17-66_AU20-33_AU24-100_AU27i-66	1	1	2	6	33	test_extra	id-1279_AU17-66_AU20-33_AU24-100_AU27i-66	valence	-0.8233864119981995		0.7687569691333921
id-1279_AU17-66_AU20-33_AU24-100_AU27i-66	1	1	2	6	33	test_extra	id-1279_AU17-66_AU20-33_AU24-100_AU27i-66	arousal	0.4918578896754921		0.7687569691333921
id-1280_AU13-100_AU17-100_AU4-100	1	1	2	6	34	test_extra	id-1280_AU13-100_AU17-100_AU4-100	valence	-0.804364283668208		1.077195213023515
id-1280_AU13-100_AU17-100_AU4-100	1	1	2	6	34	test_extra	id-1280_AU13-100_AU17-100_AU4-100	arousal	0.09782808855424154		1.077195213023515
id-1279_AU22-33_AU26-33_AU4-33	1	1	2	6	35	test	id-1279_AU22-33_AU26-33_AU4-33	valence	-0.19565617710848307		0.6354893199822982
id-1279_AU22-33_AU26-33_AU4-33	1	1	2	6	35	test	id-1279_AU22-33_AU26-33_AU4-33	arousal	0.07880596022425011		0.6354893199822982
id-1307_AU1-100_AU13-100	1	1	2	6	36	test_extra	id-1307_AU1-100_AU13-100	valence	0.14945957973564675		1.3105032507010037
id-1307_AU1-100_AU13-100	1	1	2	6	36	test_extra	id-1307_AU1-100_AU13-100	arousal	0.17935149568277614		1.3105032507010037
id-1335_AU13-33_AU4-66_AU9-33	1	1	2	7	1	train	id-1335_AU13-33_AU4-66_AU9-33	valence	-0.3994646949298196		1.1104804302776756
id-1335_AU13-33_AU4-66_AU9-33	1	1	2	7	1	train	id-1335_AU13-33_AU4-66_AU9-33	arousal	0.09239319474567256		1.1104804302776756
id-1373_AU1-66_AU24-33_AU26-66_AU7-33	1	1	2	7	2	test_extra	id-1373_AU1-66_AU24-33_AU26-66_AU7-33	valence	-0.3722902258869748		0.7187379823008087
id-1373_AU1-66_AU24-33_AU26-66_AU7-33	1	1	2	7	2	test_extra	id-1373_AU1-66_AU24-33_AU26-66_AU7-33	arousal	0.11956766378851742		0.7187379823008087
id-1290_AU14-66_AU16Open-100_AU27i-33	1	1	2	7	3	train	id-1290_AU14-66_AU16Open-100_AU27i-33	valence	-0.5271846994311905		0.7438063379195228
id-1290_AU14-66_AU16Open-100_AU27i-33	1	1	2	7	3	train	id-1290_AU14-66_AU16Open-100_AU27i-33	arousal	0.5869685313254491		0.7438063379195228
id-1358_AU11-33_AU2-100	1	1	2	7	4	test_extra	id-1358_AU11-33_AU2-100	valence	0.28533192494987114		1.4689089845451235
id-1358_AU11-33_AU2-100	1	1	2	7	4	test_extra	id-1358_AU11-33_AU2-100	arousal	0.3614204382698367		1.4689089845451235
id-1315_AU12-66_AU17-33_AU2-100_AU4-100	1	1	2	7	5	test	id-1315_AU12-66_AU17-33_AU2-100_AU4-100	valence	-0.19022128329991408		0.6854252960147278
id-1315_AU12-66_AU17-33_AU2-100_AU4-100	1	1	2	7	5	test	id-1315_AU12-66_AU17-33_AU2-100_AU4-100	arousal	0.4782706551540697		0.6854252960147278
id-1361_AU12-33_AU15-33_AU16Open-100_AU6-66	1	1	2	7	6	test	id-1361_AU12-33_AU15-33_AU16Open-100_AU6-66	valence	0.11685021688423293		0.8770220675905875
id-1361_AU12-33_AU15-33_AU16Open-100_AU6-66	1	1	2	7	6	test	id-1361_AU12-33_AU15-33_AU16Open-100_AU6-66	arousal	0.05978383189425871		0.8770220675905875
id-1373_AU10Open-100_AU17-66_AU24-33_AU43-100_AU9-66	1	1	2	7	7	test_extra	id-1373_AU10Open-100_AU17-66_AU24-33_AU43-100_AU9-66	valence	-0.8478434341367599		0.9436205748424982
id-1373_AU10Open-100_AU17-66_AU24-33_AU43-100_AU9-66	1	1	2	7	7	test_extra	id-1373_AU10Open-100_AU17-66_AU24-33_AU43-100_AU9-66	arousal	0.04347915046855179		0.9436205748424982
id-1310_AU13-66	1	1	2	7	8	test_extra	id-1310_AU13-66	valence	-0.21467830543847446		0.8604796756371798
id-1310_AU13-66	1	1	2	7	8	test_extra	id-1310_AU13-66	arousal	0.057066384989974225		0.8604796756371798
id-1260_AU13-33_AU4-66	1	1	2	7	9	train	id-1260_AU13-33_AU4-66	valence	-0.09511064164995704		0.6604444790573325
id-1260_AU13-33_AU4-66	1	1	2	7	9	train	id-1260_AU13-33_AU4-66	arousal	0.024457022138560384		0.6604444790573325
id-1356_AU24-33_AU27i-33	1	1	2	7	10	test_extra	id-1356_AU24-33_AU27i-33	valence	-0.1250025575970864		0.8602433212545293
id-1356_AU24-33_AU27i-33	1	1	2	7	10	test_extra	id-1356_AU24-33_AU27i-33	arousal	0.13315489830993985		0.8602433212545293
id-1306_AU12-100_AU14-33_AU17-33_AU27i-33	1	1	2	7	11	train	id-1306_AU12-100_AU14-33_AU17-33_AU27i-33	valence	-0.3179412878012849		0.5769576512102503
id-1306_AU12-100_AU14-33_AU17-33_AU27i-33	1	1	2	7	11	train	id-1306_AU12-100_AU14-33_AU17-33_AU27i-33	arousal	0.6005557658468715		0.5769576512102503
id-1269_AU17-33	1	1	2	7	12	train	id-1269_AU17-33	valence	-0.03532680975569833		0.8521680307603674
id-1269_AU17-33	1	1	2	7	12	train	id-1269_AU17-33	arousal	0.02717446904284487		0.8521680307603674
id-1367_AU24-33_AU4-66_AU43-33	1	1	2	7	13	test_extra	id-1367_AU24-33_AU4-66_AU43-33	valence	-0.6684919384539837		1.7102892941438768
id-1367_AU24-33_AU4-66_AU43-33	1	1	2	7	13	test_extra	id-1367_AU24-33_AU4-66_AU43-33	arousal	0.09511064164995704		1.7102892941438768
id-1293_AU2-33_AU25-33_AU7-100	1	1	2	7	14	train	id-1293_AU2-33_AU25-33_AU7-100	valence	-0.4483787392069404		0.6355004887082032
id-1293_AU2-33_AU25-33_AU7-100	1	1	2	7	14	train	id-1293_AU2-33_AU25-33_AU7-100	arousal	0.5896859782297337		0.6355004887082032
id-1274_AU14-100_AU25-100_AU27i-66_AU5-33	1	1	2	7	15	train	id-1274_AU14-100_AU25-100_AU27i-66_AU5-33	valence	-0.4266391639726645		2.177208132521628
id-1274_AU14-100_AU25-100_AU27i-66_AU5-33	1	1	2	7	15	train	id-1274_AU14-100_AU25-100_AU27i-66_AU5-33	arousal	0.7146885358268201		2.177208132521628
id-1323_AU12-66_AU16Open-33_AU7-66_AU9-100	1	1	2	7	16	test	id-1323_AU12-66_AU16Open-33_AU7-66_AU9-100	valence	-0.7011013013053977		0.7521786561446788
id-1323_AU12-66_AU16Open-33_AU7-66_AU9-100	1	1	2	7	16	test	id-1323_AU12-66_AU16Open-33_AU7-66_AU9-100	arousal	0.02173957523427589		0.7521786561446788
id-1318_AU1-33_AU10Open-33_AU16Open-100_AU27i-100	1	1	2	7	17	test_extra	id-1318_AU1-33_AU10Open-33_AU16Open-100_AU27i-100	valence	-0.5054451241969146		0.610557102074381
id-1318_AU1-33_AU10Open-33_AU16Open-100_AU27i-100	1	1	2	7	17	test_extra	id-1318_AU1-33_AU10Open-33_AU16Open-100_AU27i-100	arousal	0.7554502393910874		0.610557102074381
id-1274_AU11-66_AU12-66_AU24-66_AU27i-100_AU7-100	1	1	2	7	18	test_extra	id-1274_AU11-66_AU12-66_AU24-66_AU27i-100_AU7-100	valence	-0.3451157568441299		0.6021328643691959
id-1274_AU11-66_AU12-66_AU24-66_AU27i-100_AU7-100	1	1	2	7	18	test_extra	id-1274_AU11-66_AU12-66_AU24-66_AU27i-100_AU7-100	arousal	0.915779606743872		0.6021328643691959
id-1309_AU12-66_AU16Open-33_AU2-33_AU24-100_AU26-100	1	1	2	7	19	test_extra	id-1309_AU12-66_AU16Open-33_AU2-33_AU24-100_AU26-100	valence	-0.42392171706838		1.110411908637616
id-1309_AU12-66_AU16Open-33_AU2-33_AU24-100_AU26-100	1	1	2	7	19	test_extra	id-1309_AU12-66_AU16Open-33_AU2-33_AU24-100_AU26-100	arousal	0.9945855669681224		1.110411908637616
id-1295_AU11-33_AU12-100_AU13-100_AU20-33_AU9-66	1	1	2	7	20	test	id-1295_AU11-33_AU12-100_AU13-100_AU20-33_AU9-66	valence	-0.30163660637557804		0.6185490799107356
id-1295_AU11-33_AU12-100_AU13-100_AU20-33_AU9-66	1	1	2	7	20	test	id-1295_AU11-33_AU12-100_AU13-100_AU20-33_AU9-66	arousal	0.22283064615132792		0.6185490799107356
id-1311_AU11-66_AU5-100_AU7-66	1	1	2	7	21	test_extra	id-1311_AU11-66_AU5-100_AU7-66	valence	-0.16032936735278475		1.4854839771069237
id-1311_AU11-66_AU5-100_AU7-66	1	1	2	7	21	test_extra	id-1311_AU11-66_AU5-100_AU7-66	arousal	0.04619659737283628		1.4854839771069237
id-1273_AU1-33_AU13-33_AU26-33	1	1	2	7	22	test	id-1273_AU1-33_AU13-33_AU26-33	valence	0.3315285223227074		0.7438452775313635
id-1273_AU1-33_AU13-33_AU26-33	1	1	2	7	22	test	id-1273_AU1-33_AU13-33_AU26-33	arousal	-0.100545535458526		0.7438452775313635
id-1363_AU16Open-66_AU26-66_AU43-66	1	1	2	7	23	test_extra	id-1363_AU16Open-66_AU26-66_AU43-66	valence	0.2500051151941728		1.6437200670588936
id-1363_AU16Open-66_AU26-66_AU43-66	1	1	2	7	23	test_extra	id-1363_AU16Open-66_AU26-66_AU43-66	arousal	0.13043745140565535		1.6437200670588936
id-1347_AU11-33_AU4-100	1	1	2	7	24	test_extra	id-1347_AU11-33_AU4-100	valence	-0.1630468142570692		0.4853762139973696
id-1347_AU11-33_AU4-100	1	1	2	7	24	test_extra	id-1347_AU11-33_AU4-100	arousal	0.20380851782133647		0.4853762139973696
id-1345_AU11-33_AU25-33_AU9-66	1	1	2	7	25	test_extra	id-1345_AU11-33_AU25-33_AU9-66	valence	-0.04891404427712077		0.5686743809346808
id-1345_AU11-33_AU25-33_AU9-66	1	1	2	7	25	test_extra	id-1345_AU11-33_AU25-33_AU9-66	arousal	0.07880596022425011		0.5686743809346808
id-1355_AU13-66_AU14-100_AU15-100_AU7-33	1	1	2	7	26	test	id-1355_AU13-66_AU14-100_AU15-100_AU7-33	valence	-0.23370043376846586		2.9522026839949818
id-1355_AU13-66_AU14-100_AU15-100_AU7-33	1	1	2	7	26	test	id-1355_AU13-66_AU14-100_AU15-100_AU7-33	arousal	0.029891915947129363		2.9522026839949818
id-1344_AU12-66_AU20-33	1	1	2	7	27	test_extra	id-1344_AU12-66_AU20-33	valence	-0.5380544870483285		1.4437542976920668
id-1344_AU12-66_AU20-33	1	1	2	7	27	test_extra	id-1344_AU12-66_AU20-33	arousal	0.11141532307566396		1.4437542976920668
id-1306_AU16Open-66_AU17-33_AU26-100	1	1	2	7	28	test_extra	id-1306_AU16Open-66_AU17-33_AU26-100	valence	0.2201131992470434		0.6769630242743006
id-1306_AU16Open-66_AU17-33_AU26-100	1	1	2	7	28	test_extra	id-1306_AU16Open-66_AU17-33_AU26-100	arousal	0.11141532307566396		0.6769630242743006
id-1269_AU15-66_AU16Open-66_AU26-33_AU27i-100	1	1	2	7	29	test	id-1269_AU15-66_AU16Open-66_AU26-33_AU27i-100	valence	-0.5489242746654663		1.1770206790461089
id-1269_AU15-66_AU16Open-66_AU26-33_AU27i-100	1	1	2	7	29	test	id-1269_AU15-66_AU16Open-66_AU26-33_AU27i-100	arousal	0.4510961861112248		1.1770206790461089
id-1344_AU12-66_AU22-66_AU26-100_AU27i-33	1	1	2	7	30	test_extra	id-1344_AU12-66_AU22-66_AU26-100_AU27i-33	valence	-0.4293566108769489		0.6854434074630262
id-1344_AU12-66_AU22-66_AU26-100_AU27i-33	1	1	2	7	30	test_extra	id-1344_AU12-66_AU22-66_AU26-100_AU27i-33	arousal	0.5625115091868887		0.6854434074630262
id-1295_AU24-100_AU27i-33	1	1	2	7	31	test_extra	id-1295_AU24-100_AU27i-33	valence	-0.29891915947129355		0.8105029488433502
id-1295_AU24-100_AU27i-33	1	1	2	7	31	test_extra	id-1295_AU24-100_AU27i-33	arousal	0.312506393992716		0.8105029488433502
id-1270_AU26-100	1	1	2	7	32	train	id-1270_AU26-100	valence	-0.23370043376846586		1.4604445998011215
id-1270_AU26-100	1	1	2	7	32	train	id-1270_AU26-100	arousal	0.2554400090027418		1.4604445998011215
id-1362_AU6-100	1	1	2	7	33	test_extra	id-1362_AU6-100	valence	-0.03804425665998282		1.3687602291938674
id-1362_AU6-100	1	1	2	7	33	test_extra	id-1362_AU6-100	arousal	0.02173957523427589		1.3687602291938674
id-1309_AU12-100_AU15-100_AU27i-100	1	1	2	7	34	test_extra	id-1309_AU12-100_AU15-100_AU27i-100	valence	-0.5543591684740353		0.7186489343548601
id-1309_AU12-100_AU15-100_AU27i-100	1	1	2	7	34	test_extra	id-1309_AU12-100_AU15-100_AU27i-100	arousal	0.4619659737283627		0.7186489343548601
id-1315_AU5-33_AU6-66	1	1	2	7	35	train	id-1315_AU5-33_AU6-66	valence	-0.33424596922699185		0.7440396737256378
id-1315_AU5-33_AU6-66	1	1	2	7	35	train	id-1315_AU5-33_AU6-66	arousal	0.02173957523427589		0.7440396737256378
id-1280_AU1-33_AU15-33_AU20-33_AU25-66	1	1	2	7	36	test_extra	id-1280_AU1-33_AU15-33_AU20-33_AU25-66	valence	-0.16032936735278475		0.5770174189856334
id-1280_AU1-33_AU15-33_AU20-33_AU25-66	1	1	2	7	36	test_extra	id-1280_AU1-33_AU15-33_AU20-33_AU25-66	arousal	0.04347915046855179		0.5770174189856334
id-1345_AU14-100_AU16Open-100	1	1	2	8	1	test_extra	id-1345_AU14-100_AU16Open-100	valence	0.26359234971559525		0.6686480589632993
id-1345_AU14-100_AU16Open-100	1	1	2	8	1	test_extra	id-1345_AU14-100_AU16Open-100	arousal	0.1032629823628105		0.6686480589632993
id-1342_AU12-100_AU20-100_AU6-66	1	1	2	8	2	train	id-1342_AU12-100_AU20-100_AU6-66	valence	-0.6114255534640095		0.6771275365827023
id-1342_AU12-100_AU20-100_AU6-66	1	1	2	8	2	train	id-1342_AU12-100_AU20-100_AU6-66	arousal	0.08695830093710358		0.6771275365827023
id-1309_AU20-100_AU25-66	1	1	2	8	3	train	id-1309_AU20-100_AU25-66	valence	-0.5760987437083112		0.8936767505147145
id-1309_AU20-100_AU25-66	1	1	2	8	3	train	id-1309_AU20-100_AU25-66	arousal	0.30707150018414703		0.8936767505147145
id-1273_AU17-33_AU20-33_AU7-33_AU9-66	1	1	2	8	4	train	id-1273_AU17-33_AU20-33_AU7-33_AU9-66	valence	-0.32337618160985393		0.7687210480980866
id-1273_AU17-33_AU20-33_AU7-33_AU9-66	1	1	2	8	4	train	id-1273_AU17-33_AU20-33_AU7-33_AU9-66	arousal	0.01902212832999141		0.7687210480980866
id-1293_AU13-100	1	1	2	8	5	train	id-1293_AU13-100	valence	-0.4565310799197938		0.8854082712568925
id-1293_AU13-100	1	1	2	8	5	train	id-1293_AU13-100	arousal	0.04347915046855179		0.8854082712568925
id-1306_AU11-33_AU6-66	1	1	2	8	6	test_extra	id-1306_AU11-33_AU6-66	valence	0.2880493718541556		1.5771109947963848
id-1306_AU11-33_AU6-66	1	1	2	8	6	test_extra	id-1306_AU11-33_AU6-66	arousal	0.057066384989974225		1.5771109947963848
id-1309_AU12-33_AU15-66_AU43-100_AU5-66	1	1	2	8	7	test_extra	id-1309_AU12-33_AU15-66_AU43-100_AU5-66	valence	-0.4864229958669232		1.4936987257387957
id-1309_AU12-33_AU15-66_AU43-100_AU5-66	1	1	2	8	7	test_extra	id-1309_AU12-33_AU15-66_AU43-100_AU5-66	arousal	0.05163149118140525		1.4936987257387957
id-1366_AU15-66_AU24-33_AU4-100_AU9-100	1	1	2	8	8	test_extra	id-1366_AU15-66_AU24-33_AU4-100_AU9-100	valence	-0.20652596472562101		0.6437587048130808
id-1366_AU15-66_AU24-33_AU4-100_AU9-100	1	1	2	8	8	test_extra	id-1366_AU15-66_AU24-33_AU4-100_AU9-100	arousal	0.07880596022425011		0.6437587048130808
id-1378_AU12-100_AU13-33_AU2-100_AU27i-100	1	1	2	8	9	train	id-1378_AU12-100_AU13-33_AU2-100_AU27i-100	valence	0.3559855444612677		0.8936942582513439
id-1378_AU12-100_AU13-33_AU2-100_AU27i-100	1	1	2	8	9	train	id-1378_AU12-100_AU13-33_AU2-100_AU27i-100	arousal	0.2201131992470434		0.8936942582513439
id-1358_AU1-33_AU4-33_AU9-33	1	1	2	8	10	test_extra	id-1358_AU1-33_AU4-33_AU9-33	valence	-0.11956766378851742		0.470017706957151
id-1358_AU1-33_AU4-33_AU9-33	1	1	2	8	10	test_extra	id-1358_AU1-33_AU4-33_AU9-33	arousal	0.17663404877849165		0.470017706957151
id-1341_AU1-66_AU13-66_AU43-100_AU5-33_AU9-66	1	1	2	8	11	test_extra	id-1341_AU1-66_AU13-66_AU43-100_AU5-33_AU9-66	valence	-0.1250025575970864		0.6270451596865314
id-1341_AU1-66_AU13-66_AU43-100_AU5-33_AU9-66	1	1	2	8	11	test_extra	id-1341_AU1-66_AU13-66_AU43-100_AU5-33_AU9-66	arousal	0.29891915947129355		0.6270451596865314
id-1296_AU1-66_AU11-33	1	1	2	8	12	test_extra	id-1296_AU1-66_AU11-33	valence	-0.0842408540328191		0.602059814864333
id-1296_AU1-66_AU11-33	1	1	2	8	12	test_extra	id-1296_AU1-66_AU11-33	arousal	0.09511064164995704		0.602059814864333
id-1361_AU10Open-33_AU11-100_AU13-66_AU17-100_AU7-66	1	1	2	8	13	test_extra	id-1361_AU10Open-33_AU11-100_AU13-66_AU17-100_AU7-66	valence	0.2798970311413021		0.4856074368035479
id-1361_AU10Open-33_AU11-100_AU13-66_AU17-100_AU7-66	1	1	2	8	13	test_extra	id-1361_AU10Open-33_AU11-100_AU13-66_AU17-100_AU7-66	arousal	0.2581574559070263		0.4856074368035479
id-1335_AU24-100_AU25-100_AU27i-66	1	1	2	8	14	test_extra	id-1335_AU24-100_AU25-100_AU27i-66	valence	-0.4809881020583541		0.5937753371581493
id-1335_AU24-100_AU25-100_AU27i-66	1	1	2	8	14	test_extra	id-1335_AU24-100_AU25-100_AU27i-66	arousal	0.22283064615132792		0.5937753371581493
id-1293_AU24-33_AU27i-33_AU4-33	1	1	2	8	15	test_extra	id-1293_AU24-33_AU27i-33_AU4-33	valence	-0.17935149568277614		0.5936159564262198
id-1293_AU24-33_AU27i-33_AU4-33	1	1	2	8	15	test_extra	id-1293_AU24-33_AU27i-33_AU4-33	arousal	0.11141532307566396		0.5936159564262198
id-1289_AU11-100_AU7-100	1	1	2	8	16	train	id-1289_AU11-100_AU7-100	valence	-0.4891404427712077		0.7103143483109307
id-1289_AU11-100_AU7-100	1	1	2	8	16	train	id-1289_AU11-100_AU7-100	arousal	0.2418527744813193		0.7103143483109307
id-1266_AU13-66_AU17-100_AU2-100_AU9-33	1	1	2	8	17	test	id-1266_AU13-66_AU17-100_AU2-100_AU9-33	valence	-0.13587234521422434		0.4271183299315453
id-1266_AU13-66_AU17-100_AU2-100_AU9-33	1	1	2	8	17	test	id-1266_AU13-66_AU17-100_AU2-100_AU9-33	arousal	0.0625012787985432		0.4271183299315453
id-1270_AU11-100_AU15-100_AU20-66_AU7-66	1	1	2	8	18	test	id-1270_AU11-100_AU15-100_AU20-66_AU7-66	valence	-0.6549047039325613		0.6935618635725405
id-1270_AU11-100_AU15-100_AU20-66_AU7-66	1	1	2	8	18	test	id-1270_AU11-100_AU15-100_AU20-66_AU7-66	arousal	0.010869787617137949		0.6935618635725405
id-1295_AU13-33_AU5-66	1	1	2	8	19	train	id-1295_AU13-33_AU5-66	valence	-0.14945957973564675		0.5102287415393221
id-1295_AU13-33_AU5-66	1	1	2	8	19	train	id-1295_AU13-33_AU5-66	arousal	0.024457022138560384		0.5102287415393221
id-1260_AU14-100_AU17-33_AU2-66_AU27i-100	1	1	2	8	20	test_extra	id-1260_AU14-100_AU17-33_AU2-66_AU27i-100	valence	0.26359234971559525		0.4688129938767816
id-1260_AU14-100_AU17-33_AU2-66_AU27i-100	1	1	2	8	20	test_extra	id-1260_AU14-100_AU17-33_AU2-66_AU27i-100	arousal	-0.0054348938085689745		0.4688129938767816
id-1269_AU10Open-66_AU20-66_AU26-66_AU43-66	1	1	2	8	21	test	id-1269_AU10Open-66_AU20-66_AU26-66_AU43-66	valence	-0.5163149118140525		0.6018361384958553
id-1269_AU10Open-66_AU20-66_AU26-66_AU43-66	1	1	2	8	21	test	id-1269_AU10Open-66_AU20-66_AU26-66_AU43-66	arousal	0.1630468142570692		0.6018361384958553
id-1342_AU17-33_AU27i-33_AU5-66_AU7-33	1	1	2	8	22	test_extra	id-1342_AU17-33_AU27i-33_AU5-66_AU7-33	valence	-0.7472978986782339		1.2270849444976193
id-1342_AU17-33_AU27i-33_AU5-66_AU7-33	1	1	2	8	22	test_extra	id-1342_AU17-33_AU27i-33_AU5-66_AU7-33	arousal	0.6087081065597252		1.2270849444976193
id-1260_AU22-100_AU25-100_AU26-100	1	1	2	8	23	test	id-1260_AU22-100_AU25-100_AU26-100	valence	-0.100545535458526		0.6519493048508593
id-1260_AU22-100_AU25-100_AU26-100	1	1	2	8	23	test	id-1260_AU22-100_AU25-100_AU26-100	arousal	0.28533192494987114		0.6519493048508593
id-1311_AU11-100_AU16Open-33_AU24-100_AU5-100	1	1	2	8	24	test_extra	id-1311_AU11-100_AU16Open-33_AU24-100_AU5-100	valence	-0.0815234071285346		1.7438211289336325
id-1311_AU11-100_AU16Open-33_AU24-100_AU5-100	1	1	2	8	24	test_extra	id-1311_AU11-100_AU16Open-33_AU24-100_AU5-100	arousal	-0.100545535458526		1.7438211289336325
id-1269_AU11-100_AU13-33_AU25-100	1	1	2	8	25	test_extra	id-1269_AU11-100_AU13-33_AU25-100	valence	-0.024457022138560384		0.5187030875786149
id-1269_AU11-100_AU13-33_AU25-100	1	1	2	8	25	test_extra	id-1269_AU11-100_AU13-33_AU25-100	arousal	0.01902212832999141		0.5187030875786149
id-1354_AU12-33_AU13-33	1	1	2	8	26	test_extra	id-1354_AU12-33_AU13-33	valence	0.05434893808568974		0.6852885545922618
id-1354_AU12-33_AU13-33	1	1	2	8	26	test_extra	id-1354_AU12-33_AU13-33	arousal	0.105980429267095		0.6852885545922618
id-1347_AU20-100_AU5-100	1	1	2	8	27	test_extra	id-1347_AU20-100_AU5-100	valence	-0.17391660187420716		0.5019934665979235
id-1347_AU20-100_AU5-100	1	1	2	8	27	test_extra	id-1347_AU20-100_AU5-100	arousal	0.1440246859270778		0.5019934665979235
id-1358_AU2-33_AU4-33_AU9-100	1	1	2	8	28	test_extra	id-1358_AU2-33_AU4-33_AU9-100	valence	-0.22283064615132792		1.3935273310780758
id-1358_AU2-33_AU4-33_AU9-100	1	1	2	8	28	test_extra	id-1358_AU2-33_AU4-33_AU9-100	arousal	0.29891915947129355		1.3935273310780758
id-1367_AU25-66_AU4-66_AU6-33	1	1	2	8	29	test	id-1367_AU25-66_AU4-66_AU6-33	valence	-0.057066384989974225		0.7937365786638111
id-1367_AU25-66_AU4-66_AU6-33	1	1	2	8	29	test	id-1367_AU25-66_AU4-66_AU6-33	arousal	0.6902315136882597		0.7937365786638111
id-1310_AU2-66	1	1	2	8	30	test_extra	id-1310_AU2-66	valence	-0.07880596022425011		1.0520565246188198
id-1310_AU2-66	1	1	2	8	30	test_extra	id-1310_AU2-66	arousal	0.16032936735278475		1.0520565246188198
id-1356_AU15-100	1	1	2	8	31	test_extra	id-1356_AU15-100	valence	-0.09511064164995704		0.5769576512102503
id-1356_AU15-100	1	1	2	8	31	test_extra	id-1356_AU15-100	arousal	0.13858979211850886		0.5769576512102503
id-1297_AU11-100_AU24-33	1	1	2	8	32	test	id-1297_AU11-100_AU24-33	valence	-0.05978383189425871		0.910391503071878
id-1297_AU11-100_AU24-33	1	1	2	8	32	test	id-1297_AU11-100_AU24-33	arousal	0.3885949073126817		0.910391503071878
id-1366_AU10Open-66_AU12-33_AU6-100_AU7-33	1	1	2	8	33	test_extra	id-1366_AU10Open-66_AU12-33_AU6-100_AU7-33	valence	-0.09511064164995704		0.6867875786847435
id-1366_AU10Open-66_AU12-33_AU6-100_AU7-33	1	1	2	8	33	test_extra	id-1366_AU10Open-66_AU12-33_AU6-100_AU7-33	arousal	0.7500153455825184		0.6867875786847435
id-1380_AU2-33_AU25-100_AU7-33	1	1	2	8	34	train	id-1380_AU2-33_AU25-100_AU7-33	valence	-0.09782808855424154		0.5770693384693004
id-1380_AU2-33_AU25-100_AU7-33	1	1	2	8	34	train	id-1380_AU2-33_AU25-100_AU7-33	arousal	0.1277200045013709		0.5770693384693004
id-1285_AU16Open-33_AU5-33	1	1	2	8	35	test	id-1285_AU16Open-33_AU5-33	valence	-0.0054348938085689745		2.00211541700628
id-1285_AU16Open-33_AU5-33	1	1	2	8	35	test	id-1285_AU16Open-33_AU5-33	arousal	0.013587234521422437		2.00211541700628
id-1377_AU2-33_AU6-33	1	1	2	8	36	train	id-1377_AU2-33_AU6-33	valence	0.0		0.5686438933335012
id-1377_AU2-33_AU6-33	1	1	2	8	36	train	id-1377_AU2-33_AU6-33	arousal	-0.0027174469042844872		0.5686438933335012
id-1274_AU15-33_AU16Open-100_AU17-100_AU25-100	1	1	3	9	1	test_extra	id-1274_AU15-33_AU16Open-100_AU17-100_AU25-100	emotion	Boos	0.4579253990144268	1.1281502598067163
id-1342_AU12-66_AU14-100_AU27i-33_AU6-66	1	1	3	9	2	train	id-1342_AU12-66_AU14-100_AU27i-33_AU6-66	emotion	Boos	0.5880242718645389	0.6201229646503634
id-1366_AU5-100	1	1	3	9	3	test_extra	id-1366_AU5-100	emotion	Geen van allen	0.0	1.2196348007819324
id-1280_AU11-33_AU17-66_AU2-66_AU26-66_AU9-66	1	1	3	9	4	test	id-1280_AU11-33_AU17-66_AU2-66_AU26-66_AU9-66	emotion	Verrassing	0.046879729441056416	2.153369242292684
id-1279_AU13-66_AU20-33	1	1	3	9	5	train	id-1279_AU13-66_AU20-33	emotion	Verdrietig	0.18598453116774105	1.1615082247080863
id-1285_AU11-66_AU4-33	1	1	3	9	6	test_extra	id-1285_AU11-66_AU4-33	emotion	Walging	0.054668600573364284	1.3031276657784474
id-1356_AU11-100_AU12-33_AU25-66	1	1	3	9	7	train	id-1356_AU11-100_AU12-33_AU25-66	emotion	Verrassing	0.20783798483952784	2.4615575482166605
id-1264_AU10Open-33_AU25-66_AU4-66	1	1	3	9	8	test	id-1264_AU10Open-33_AU25-66_AU4-66	emotion	Geen van allen	0.0	0.7529972935444675
id-1269_AU14-100_AU20-100_AU5-66	1	1	3	9	9	test_extra	id-1269_AU14-100_AU20-100_AU5-66	emotion	Blij	0.09776828567258897	0.8447142647564759
id-1342_AU13-33_AU24-100_AU26-100_AU4-66_AU9-66	1	1	3	9	10	train	id-1342_AU13-33_AU24-100_AU26-100_AU4-66_AU9-66	emotion	Boos	0.7411072627509593	1.278087081045669
id-1310_AU16Open-100_AU27i-66_AU6-33_AU7-66	1	1	3	9	11	test_extra	id-1310_AU16Open-100_AU27i-66_AU6-33_AU7-66	emotion	Boos	0.1339826032596665	1.8116089545401337
id-1309_AU15-33	1	1	3	9	12	test	id-1309_AU15-33	emotion	Geen van allen	0.0	1.1111913045715482
id-1260_AU14-33_AU20-33_AU25-33	1	1	3	9	13	train	id-1260_AU14-33_AU20-33_AU25-33	emotion	Blij	0.4729047627632665	1.8531623492017388
id-1344_AU10Open-66	1	1	3	9	14	test_extra	id-1344_AU10Open-66	emotion	Walging	0.3268202030709715	1.0530586913519069
id-1378_AU15-100_AU16Open-66_AU26-66_AU7-100	1	1	3	9	15	test_extra	id-1378_AU15-100_AU16Open-66_AU26-66_AU7-100	emotion	Boos	0.13418312524945109	3.7535825951417774
id-1289_AU1-100_AU12-100_AU13-100_AU17-33	1	1	3	9	16	train	id-1289_AU1-100_AU12-100_AU13-100_AU17-33	emotion	Bang	0.15013093966256796	3.8047531681440887
id-1285_AU1-66_AU12-100_AU14-66_AU16Open-33_AU24-66	1	1	3	9	17	test_extra	id-1285_AU1-66_AU12-100_AU14-66_AU16Open-33_AU24-66	emotion	Blij	0.4999904101265069	1.1114469778367493
id-1289_AU4-66_AU43-66_AU6-33	1	1	3	9	18	test_extra	id-1289_AU4-66_AU43-66_AU6-33	emotion	Geen van allen	0.0	1.9865552691917399
id-1269_AU10Open-33	1	1	3	9	19	test_extra	id-1269_AU10Open-33	emotion	Walging	0.11428114624079518	1.4699147735700535
id-1360_AU11-33_AU25-100	1	1	3	9	20	test_extra	id-1360_AU11-33_AU25-100	emotion	Walging	0.2998173921977883	1.1865847304798078
id-1295_AU15-66_AU17-33_AU20-33_AU25-66	1	1	3	9	21	test_extra	id-1295_AU15-66_AU17-33_AU20-33_AU25-66	emotion	Boos	0.2456379344134361	2.247501374960848
id-1318_AU1-33_AU16Open-33_AU20-100_AU43-66	1	1	3	9	22	train	id-1318_AU1-33_AU16Open-33_AU20-100_AU43-66	emotion	Geen van allen	0.0	0.6530704034194059
id-1309_AU11-66_AU24-66	1	1	3	9	23	test	id-1309_AU11-66_AU24-66	emotion	Boos	0.18319458192641694	2.328270580186654
id-1358_AU11-100_AU12-100_AU14-100_AU16Open-66_AU6-100	1	1	3	9	24	test	id-1358_AU11-100_AU12-100_AU14-100_AU16Open-66_AU6-100	emotion	Blij	0.7659404755489213	0.7281342009919172
id-1356_AU12-33_AU15-66_AU16Open-66_AU6-33_AU9-100	1	1	3	9	25	train	id-1356_AU12-33_AU15-66_AU16Open-66_AU6-33_AU9-100	emotion	Blij	0.1783052233250121	1.0114150413137395
id-1306_AU16Open-33_AU17-100_AU22-66_AU4-100	1	1	3	9	26	test_extra	id-1306_AU16Open-33_AU17-100_AU22-66_AU4-100	emotion	Boos	0.09607140014554634	1.4198154926525604
id-1345_AU10Open-33_AU27i-100	1	1	3	9	27	test_extra	id-1345_AU10Open-33_AU27i-100	emotion	Verrassing	0.10092329187416177	4.128435816954152
id-1309_AU10Open-100_AU2-100_AU27i-33	1	1	3	9	28	test_extra	id-1309_AU10Open-100_AU2-100_AU27i-33	emotion	Verrassing	0.6211712658901253	0.9531963987210474
id-1370_AU10Open-100_AU2-33_AU27i-66_AU5-66	1	1	3	9	29	test	id-1370_AU10Open-100_AU2-33_AU27i-66_AU5-66	emotion	Verrassing	0.492317320383474	0.9864161129080458
id-1376_AU10Open-100_AU11-66_AU13-100_AU6-100	1	1	3	9	30	test_extra	id-1376_AU10Open-100_AU11-66_AU13-100_AU6-100	emotion	Blij	0.12274001108430545	2.244892119164433
id-1376_AU11-100_AU17-33_AU24-66_AU43-66	1	1	3	9	31	test_extra	id-1376_AU11-100_AU17-33_AU24-66_AU43-66	emotion	Walging	0.4447434541880623	0.9614778578506956
id-1315_AU15-33_AU20-100	1	1	3	9	32	train	id-1315_AU15-33_AU20-100	emotion	Verdrietig	0.9765660593664344	0.4279916035338829
id-1311_AU16Open-100_AU43-100_AU6-66_AU9-100	1	1	3	9	33	test	id-1311_AU16Open-100_AU43-100_AU6-66_AU9-100	emotion	Boos	0.10131740010254847	1.0946990209558862
id-1339_AU10Open-33_AU13-66_AU20-33_AU43-100	1	1	3	9	34	train	id-1339_AU10Open-33_AU13-66_AU20-33_AU43-100	emotion	Boos	0.10476458175268244	0.7115244948254258
id-1306_AU11-33_AU16Open-66	1	1	3	9	35	train	id-1306_AU11-33_AU16Open-66	emotion	Boos	0.2791375172378947	1.2615658191098191
id-1307_AU17-33_AU4-33_AU5-33	1	1	3	9	36	test_extra	id-1307_AU17-33_AU4-33_AU5-33	emotion	Verrassing	0.1971513949888068	0.8363920548690658
id-1274_AU14-100_AU25-100_AU27i-66_AU5-33	1	1	3	10	1	train	id-1274_AU14-100_AU25-100_AU27i-66_AU5-33	emotion	Bang	0.6989330715299431	2.7283747813817167
id-1373_AU10Open-100_AU17-66_AU24-33_AU43-100_AU9-66	1	1	3	10	2	test_extra	id-1373_AU10Open-100_AU17-66_AU24-33_AU43-100_AU9-66	emotion	Walging	0.14339661843854376	0.8720217989393859
id-1335_AU13-33_AU4-66_AU9-33	1	1	3	10	3	train	id-1335_AU13-33_AU4-66_AU9-33	emotion	Verrassing	0.10191683396605117	0.8115162843059807
id-1315_AU5-33_AU6-66	1	1	3	10	4	train	id-1315_AU5-33_AU6-66	emotion	Boos	0.334610428889899	0.4946848940271593
id-1306_AU16Open-66_AU17-33_AU26-100	1	1	3	10	5	test_extra	id-1306_AU16Open-66_AU17-33_AU26-100	emotion	Bang	0.8559042063207581	1.0364912452278077
id-1309_AU12-100_AU15-100_AU27i-100	1	1	3	10	6	test_extra	id-1309_AU12-100_AU15-100_AU27i-100	emotion	Boos	0.3185737046003178	1.2197603734857694
id-1363_AU16Open-66_AU26-66_AU43-66	1	1	3	10	7	test_extra	id-1363_AU16Open-66_AU26-66_AU43-66	emotion	Geen van allen	0.0	0.8862875820050249
id-1306_AU12-100_AU14-33_AU17-33_AU27i-33	1	1	3	10	8	train	id-1306_AU12-100_AU14-33_AU17-33_AU27i-33	emotion	Verdrietig	0.2308937928701625	0.8283880027374835
id-1323_AU12-66_AU16Open-33_AU7-66_AU9-100	1	1	3	10	9	test	id-1323_AU12-66_AU16Open-33_AU7-66_AU9-100	emotion	Boos	0.2910297924994697	0.7447330402901571
id-1318_AU1-33_AU10Open-33_AU16Open-100_AU27i-100	1	1	3	10	10	test_extra	id-1318_AU1-33_AU10Open-33_AU16Open-100_AU27i-100	emotion	Boos	0.3300582140811881	1.5702944498661964
id-1295_AU11-33_AU12-100_AU13-100_AU20-33_AU9-66	1	1	3	10	11	test	id-1295_AU11-33_AU12-100_AU13-100_AU20-33_AU9-66	emotion	Boos	0.5454503346638515	0.669707276756526
id-1373_AU1-66_AU24-33_AU26-66_AU7-33	1	1	3	10	12	test_extra	id-1373_AU1-66_AU24-33_AU26-66_AU7-33	emotion	Verrassing	0.2749126487309071	1.719802029809216
id-1274_AU11-66_AU12-66_AU24-66_AU27i-100_AU7-100	1	1	3	10	13	test_extra	id-1274_AU11-66_AU12-66_AU24-66_AU27i-100_AU7-100	emotion	Geen van allen	0.0	1.7283747813780792
id-1367_AU24-33_AU4-66_AU43-33	1	1	3	10	14	test_extra	id-1367_AU24-33_AU4-66_AU43-33	emotion	Verrassing	0.0970641648707183	0.4864161129080458
id-1315_AU12-66_AU17-33_AU2-100_AU4-100	1	1	3	10	15	test	id-1315_AU12-66_AU17-33_AU2-100_AU4-100	emotion	Geen van allen	0.0	1.1947569172116346
id-1295_AU24-100_AU27i-33	1	1	3	10	16	test_extra	id-1295_AU24-100_AU27i-33	emotion	Geen van allen	0.0	1.1949416539719095
id-1310_AU13-66	1	1	3	10	17	test_extra	id-1310_AU13-66	emotion	Walging	0.15360193336991734	0.9281020833586808
id-1344_AU12-66_AU20-33	1	1	3	10	18	test_extra	id-1344_AU12-66_AU20-33	emotion	Walging	0.08481261656154741	1.2282464919626364
id-1270_AU26-100	1	1	3	10	19	train	id-1270_AU26-100	emotion	Verrassing	0.5111667390348309	0.8197717836919765
id-1356_AU24-33_AU27i-33	1	1	3	10	20	test_extra	id-1356_AU24-33_AU27i-33	emotion	Verdrietig	0.07430114887405241	2.7366634850877745
id-1290_AU14-66_AU16Open-100_AU27i-33	1	1	3	10	21	train	id-1290_AU14-66_AU16Open-100_AU27i-33	emotion	Bang	0.3156129622053014	0.8193908395915059
id-1269_AU17-33	1	1	3	10	22	train	id-1269_AU17-33	emotion	Walging	0.050797482868091465	0.8530929219850805
id-1347_AU11-33_AU4-100	1	1	3	10	23	test_extra	id-1347_AU11-33_AU4-100	emotion	Bang	0.5283933880234727	0.7863984240611899
id-1345_AU11-33_AU25-33_AU9-66	1	1	3	10	24	test_extra	id-1345_AU11-33_AU25-33_AU9-66	emotion	Bang	0.09285741672252668	0.5698407581221545
id-1355_AU13-66_AU14-100_AU15-100_AU7-33	1	1	3	10	25	test	id-1355_AU13-66_AU14-100_AU15-100_AU7-33	emotion	Bang	0.03986923000911546	0.7281009966718557
id-1358_AU11-33_AU2-100	1	1	3	10	26	test_extra	id-1358_AU11-33_AU2-100	emotion	Verrassing	0.1478382743296904	1.1613292232432286
id-1269_AU15-66_AU16Open-66_AU26-33_AU27i-100	1	1	3	10	27	test	id-1269_AU15-66_AU16Open-66_AU26-33_AU27i-100	emotion	Bang	0.4743803123969202	1.1116320164510398
id-1260_AU13-33_AU4-66	1	1	3	10	28	train	id-1260_AU13-33_AU4-66	emotion	Verdrietig	0.20480638142835936	0.6114684097119607
id-1273_AU1-33_AU13-33_AU26-33	1	1	3	10	29	test	id-1273_AU1-33_AU13-33_AU26-33	emotion	Blij	0.20319295362558484	1.0282749873076682
id-1311_AU11-66_AU5-100_AU7-66	1	1	3	10	30	test_extra	id-1311_AU11-66_AU5-100_AU7-66	emotion	Geen van allen	0.0	1.978584119518928
id-1361_AU12-33_AU15-33_AU16Open-100_AU6-66	1	1	3	10	31	test	id-1361_AU12-33_AU15-33_AU16Open-100_AU6-66	emotion	Blij	0.12448860321872406	1.8448691176272405
id-1280_AU1-33_AU15-33_AU20-33_AU25-66	1	1	3	10	32	test_extra	id-1280_AU1-33_AU15-33_AU20-33_AU25-66	emotion	Bang	0.4373337524762115	0.7113808106769284
id-1362_AU6-100	1	1	3	10	33	test_extra	id-1362_AU6-100	emotion	Boos	0.08620763081581627	2.019918969388528
id-1293_AU2-33_AU25-33_AU7-100	1	1	3	10	34	train	id-1293_AU2-33_AU25-33_AU7-100	emotion	Geen van allen	0.0	0.7948302082040755
id-1344_AU12-66_AU22-66_AU26-100_AU27i-33	1	1	3	10	35	test_extra	id-1344_AU12-66_AU22-66_AU26-100_AU27i-33	emotion	Boos	0.6123701947612213	0.7280641700635897
id-1309_AU12-66_AU16Open-33_AU2-33_AU24-100_AU26-100	1	1	3	10	36	test_extra	id-1309_AU12-66_AU16Open-33_AU2-33_AU24-100_AU26-100	emotion	Boos	0.7774658211183878	0.903057876337698
id-1274_AU15-33_AU16Open-100_AU17-100_AU25-100	1	1	3	11	1	test_extra	id-1274_AU15-33_AU16Open-100_AU17-100_AU25-100	valence	-0.3940298011212506		3.552339666908665
id-1274_AU15-33_AU16Open-100_AU17-100_AU25-100	1	1	3	11	1	test_extra	id-1274_AU15-33_AU16Open-100_AU17-100_AU25-100	arousal	0.2554400090027418		3.552339666908665
id-1339_AU10Open-33_AU13-66_AU20-33_AU43-100	1	1	3	11	2	train	id-1339_AU10Open-33_AU13-66_AU20-33_AU43-100	valence	0.2608749028113107		0.5437391444502282
id-1339_AU10Open-33_AU13-66_AU20-33_AU43-100	1	1	3	11	2	train	id-1339_AU10Open-33_AU13-66_AU20-33_AU43-100	arousal	0.28261447804558665		0.5437391444502282
id-1370_AU10Open-100_AU2-33_AU27i-66_AU5-66	1	1	3	11	3	test	id-1370_AU10Open-100_AU2-33_AU27i-66_AU5-66	valence	0.3967472480255351		0.593610522992094
id-1370_AU10Open-100_AU2-33_AU27i-66_AU5-66	1	1	3	11	3	test	id-1370_AU10Open-100_AU2-33_AU27i-66_AU5-66	arousal	0.5434893808568974		0.593610522992094
id-1318_AU1-33_AU16Open-33_AU20-100_AU43-66	1	1	3	11	4	train	id-1318_AU1-33_AU16Open-33_AU20-100_AU43-66	valence	0.0		0.6187332129520655
id-1318_AU1-33_AU16Open-33_AU20-100_AU43-66	1	1	3	11	4	train	id-1318_AU1-33_AU16Open-33_AU20-100_AU43-66	arousal	0.0		0.6187332129520655
id-1289_AU4-66_AU43-66_AU6-33	1	1	3	11	5	test_extra	id-1289_AU4-66_AU43-66_AU6-33	valence	0.0		0.3188321014531539
id-1289_AU4-66_AU43-66_AU6-33	1	1	3	11	5	test_extra	id-1289_AU4-66_AU43-66_AU6-33	arousal	0.0		0.3188321014531539
id-1309_AU15-33	1	1	3	11	6	test	id-1309_AU15-33	valence	0.0		0.5102845851652091
id-1309_AU15-33	1	1	3	11	6	test	id-1309_AU15-33	arousal	0.0		0.5102845851652091
id-1310_AU16Open-100_AU27i-66_AU6-33_AU7-66	1	1	3	11	7	test_extra	id-1310_AU16Open-100_AU27i-66_AU6-33_AU7-66	valence	-0.2717446904284487		0.7685794769531641
id-1310_AU16Open-100_AU27i-66_AU6-33_AU7-66	1	1	3	11	7	test_extra	id-1310_AU16Open-100_AU27i-66_AU6-33_AU7-66	arousal	0.4320740577812335		0.7685794769531641
id-1269_AU14-100_AU20-100_AU5-66	1	1	3	11	8	test_extra	id-1269_AU14-100_AU20-100_AU5-66	valence	0.12228511069280193		0.8187883321224945
id-1269_AU14-100_AU20-100_AU5-66	1	1	3	11	8	test_extra	id-1269_AU14-100_AU20-100_AU5-66	arousal	0.2092434116299055		0.8187883321224945
id-1264_AU10Open-33_AU25-66_AU4-66	1	1	3	11	9	test	id-1264_AU10Open-33_AU25-66_AU4-66	valence	0.0407617035642673		0.9437141506568878
id-1264_AU10Open-33_AU25-66_AU4-66	1	1	3	11	9	test	id-1264_AU10Open-33_AU25-66_AU4-66	arousal	0.06521872570282768		0.9437141506568878
id-1285_AU11-66_AU4-33	1	1	3	11	10	test_extra	id-1285_AU11-66_AU4-33	valence	-0.0027174469042844872		0.7518650262536539
id-1285_AU11-66_AU4-33	1	1	3	11	10	test_extra	id-1285_AU11-66_AU4-33	arousal	0.3858774604083972		0.7518650262536539
id-1342_AU13-33_AU24-100_AU26-100_AU4-66_AU9-66	1	1	3	11	11	train	id-1342_AU13-33_AU24-100_AU26-100_AU4-66_AU9-66	valence	-0.6277302348897165		1.3604718273454637
id-1342_AU13-33_AU24-100_AU26-100_AU4-66_AU9-66	1	1	3	11	11	train	id-1342_AU13-33_AU24-100_AU26-100_AU4-66_AU9-66	arousal	0.6902315136882597		1.3604718273454637
id-1260_AU14-33_AU20-33_AU25-33	1	1	3	11	12	train	id-1260_AU14-33_AU20-33_AU25-33	valence	-0.1250025575970864		0.6035192956333049
id-1260_AU14-33_AU20-33_AU25-33	1	1	3	11	12	train	id-1260_AU14-33_AU20-33_AU25-33	arousal	0.06793617260711217		0.6035192956333049
id-1356_AU11-100_AU12-33_AU25-66	1	1	3	11	13	train	id-1356_AU11-100_AU12-33_AU25-66	valence	0.11956766378851742		0.7769702084806341
id-1356_AU11-100_AU12-33_AU25-66	1	1	3	11	13	train	id-1356_AU11-100_AU12-33_AU25-66	arousal	0.07065361951139666		0.7769702084806341
id-1311_AU16Open-100_AU43-100_AU6-66_AU9-100	1	1	3	11	14	test	id-1311_AU16Open-100_AU43-100_AU6-66_AU9-100	valence	-0.6222953410811475		0.6102621873433236
id-1311_AU16Open-100_AU43-100_AU6-66_AU9-100	1	1	3	11	14	test	id-1311_AU16Open-100_AU43-100_AU6-66_AU9-100	arousal	-0.03804425665998282		0.6102621873433236
id-1315_AU15-33_AU20-100	1	1	3	11	15	train	id-1315_AU15-33_AU20-100	valence	-0.2527225620984573		0.9519820261994028
id-1315_AU15-33_AU20-100	1	1	3	11	15	train	id-1315_AU15-33_AU20-100	arousal	0.02717446904284487		0.9519820261994028
id-1376_AU11-100_AU17-33_AU24-66_AU43-66	1	1	3	11	16	test_extra	id-1376_AU11-100_AU17-33_AU24-66_AU43-66	valence	-0.6576221508368458		0.77692945772651
id-1376_AU11-100_AU17-33_AU24-66_AU43-66	1	1	3	11	16	test_extra	id-1376_AU11-100_AU17-33_AU24-66_AU43-66	arousal	-0.3614204382698367		0.77692945772651
id-1279_AU13-66_AU20-33	1	1	3	11	17	train	id-1279_AU13-66_AU20-33	valence	0.3097889470884315		0.7020078350105905
id-1279_AU13-66_AU20-33	1	1	3	11	17	train	id-1279_AU13-66_AU20-33	arousal	0.20652596472562101		0.7020078350105905
id-1360_AU11-33_AU25-100	1	1	3	11	18	test_extra	id-1360_AU11-33_AU25-100	valence	0.03260936285141384		0.8019972096299169
id-1360_AU11-33_AU25-100	1	1	3	11	18	test_extra	id-1360_AU11-33_AU25-100	arousal	0.0625012787985432		0.8019972096299169
id-1345_AU10Open-33_AU27i-100	1	1	3	11	19	test_extra	id-1345_AU10Open-33_AU27i-100	valence	-0.6413174694111391		1.060384167936718
id-1345_AU10Open-33_AU27i-100	1	1	3	11	19	test_extra	id-1345_AU10Open-33_AU27i-100	arousal	0.2798970311413021		1.060384167936718
id-1378_AU15-100_AU16Open-66_AU26-66_AU7-100	1	1	3	11	20	test_extra	id-1378_AU15-100_AU16Open-66_AU26-66_AU7-100	valence	-0.7717549208167943		0.8685794165830885
id-1378_AU15-100_AU16Open-66_AU26-66_AU7-100	1	1	3	11	20	test_extra	id-1378_AU15-100_AU16Open-66_AU26-66_AU7-100	arousal	0.7771898146253633		0.8685794165830885
id-1309_AU10Open-100_AU2-100_AU27i-33	1	1	3	11	21	test_extra	id-1309_AU10Open-100_AU2-100_AU27i-33	valence	-0.6222953410811475		1.0270289197542295
id-1309_AU10Open-100_AU2-100_AU27i-33	1	1	3	11	21	test_extra	id-1309_AU10Open-100_AU2-100_AU27i-33	arousal	0.7690374739125099		1.0270289197542295
id-1376_AU10Open-100_AU11-66_AU13-100_AU6-100	1	1	3	11	22	test_extra	id-1376_AU10Open-100_AU11-66_AU13-100_AU6-100	valence	-0.4103344825469576		0.6685575017327211
id-1376_AU10Open-100_AU11-66_AU13-100_AU6-100	1	1	3	11	22	test_extra	id-1376_AU10Open-100_AU11-66_AU13-100_AU6-100	arousal	0.312506393992716		0.6685575017327211
id-1295_AU15-66_AU17-33_AU20-33_AU25-66	1	1	3	11	23	test_extra	id-1295_AU15-66_AU17-33_AU20-33_AU25-66	valence	-0.5217498056226214		1.0102806610193509
id-1295_AU15-66_AU17-33_AU20-33_AU25-66	1	1	3	11	23	test_extra	id-1295_AU15-66_AU17-33_AU20-33_AU25-66	arousal	0.6494698101239924		1.0102806610193509
id-1285_AU1-66_AU12-100_AU14-66_AU16Open-33_AU24-66	1	1	3	11	24	test_extra	id-1285_AU1-66_AU12-100_AU14-66_AU16Open-33_AU24-66	valence	0.4592485268240783		0.6267885808520077
id-1285_AU1-66_AU12-100_AU14-66_AU16Open-33_AU24-66	1	1	3	11	24	test_extra	id-1285_AU1-66_AU12-100_AU14-66_AU16Open-33_AU24-66	arousal	0.3858774604083972		0.6267885808520077
id-1309_AU11-66_AU24-66	1	1	3	11	25	test	id-1309_AU11-66_AU24-66	valence	-0.2255480930556124		0.5852013781623101
id-1309_AU11-66_AU24-66	1	1	3	11	25	test	id-1309_AU11-66_AU24-66	arousal	0.1657642611613537		0.5852013781623101
id-1306_AU11-33_AU16Open-66	1	1	3	11	26	train	id-1306_AU11-33_AU16Open-66	valence	-0.06521872570282768		0.6518593513319502
id-1306_AU11-33_AU16Open-66	1	1	3	11	26	train	id-1306_AU11-33_AU16Open-66	arousal	0.024457022138560384		0.6518593513319502
id-1358_AU11-100_AU12-100_AU14-100_AU16Open-66_AU6-100	1	1	3	11	27	test	id-1358_AU11-100_AU12-100_AU14-100_AU16Open-66_AU6-100	valence	-0.2880493718541556		1.5437862342150763
id-1358_AU11-100_AU12-100_AU14-100_AU16Open-66_AU6-100	1	1	3	11	27	test	id-1358_AU11-100_AU12-100_AU14-100_AU16Open-66_AU6-100	arousal	0.03804425665998282		1.5437862342150763
id-1306_AU16Open-33_AU17-100_AU22-66_AU4-100	1	1	3	11	28	test_extra	id-1306_AU16Open-33_AU17-100_AU22-66_AU4-100	valence	0.11956766378851742		1.160366599833651
id-1306_AU16Open-33_AU17-100_AU22-66_AU4-100	1	1	3	11	28	test_extra	id-1306_AU16Open-33_AU17-100_AU22-66_AU4-100	arousal	0.01902212832999141		1.160366599833651
id-1307_AU17-33_AU4-33_AU5-33	1	1	3	11	29	test_extra	id-1307_AU17-33_AU4-33_AU5-33	valence	-0.28533192494987114		0.6519885463239916
id-1307_AU17-33_AU4-33_AU5-33	1	1	3	11	29	test_extra	id-1307_AU17-33_AU4-33_AU5-33	arousal	0.15761192044850025		0.6519885463239916
id-1289_AU1-100_AU12-100_AU13-100_AU17-33	1	1	3	11	30	train	id-1289_AU1-100_AU12-100_AU13-100_AU17-33	valence	0.5679464029954577		0.5935860725367093
id-1289_AU1-100_AU12-100_AU13-100_AU17-33	1	1	3	11	30	train	id-1289_AU1-100_AU12-100_AU13-100_AU17-33	arousal	0.4293566108769489		0.5935860725367093
id-1269_AU10Open-33	1	1	3	11	31	test_extra	id-1269_AU10Open-33	valence	-0.20380851782133647		0.751916945733683
id-1269_AU10Open-33	1	1	3	11	31	test_extra	id-1269_AU10Open-33	arousal	0.4103344825469576		0.751916945733683
id-1366_AU5-100	1	1	3	11	32	test_extra	id-1366_AU5-100	valence	-0.100545535458526		0.6018620982358698
id-1366_AU5-100	1	1	3	11	32	test_extra	id-1366_AU5-100	arousal	0.09511064164995704		0.6018620982358698
id-1344_AU10Open-66	1	1	3	11	33	test_extra	id-1344_AU10Open-66	valence	-0.7065361951139666		0.8435503024338686
id-1344_AU10Open-66	1	1	3	11	33	test_extra	id-1344_AU10Open-66	arousal	0.01902212832999141		0.8435503024338686
id-1280_AU11-33_AU17-66_AU2-66_AU26-66_AU9-66	1	1	3	11	34	test	id-1280_AU11-33_AU17-66_AU2-66_AU26-66_AU9-66	valence	-0.201091070917052		0.8436067497750628
id-1280_AU11-33_AU17-66_AU2-66_AU26-66_AU9-66	1	1	3	11	34	test	id-1280_AU11-33_AU17-66_AU2-66_AU26-66_AU9-66	arousal	0.8016468367639237		0.8436067497750628
id-1342_AU12-66_AU14-100_AU27i-33_AU6-66	1	1	3	11	35	train	id-1342_AU12-66_AU14-100_AU27i-33_AU6-66	valence	-0.4837055489626387		0.8936094363052689
id-1342_AU12-66_AU14-100_AU27i-33_AU6-66	1	1	3	11	35	train	id-1342_AU12-66_AU14-100_AU27i-33_AU6-66	arousal	0.8886051377010272		0.8936094363052689
id-1356_AU12-33_AU15-66_AU16Open-66_AU6-33_AU9-100	1	1	3	11	36	train	id-1356_AU12-33_AU15-66_AU16Open-66_AU6-33_AU9-100	valence	0.5380544870483285		0.8269273145378975
id-1356_AU12-33_AU15-66_AU16Open-66_AU6-33_AU9-100	1	1	3	11	36	train	id-1356_AU12-33_AU15-66_AU16Open-66_AU6-33_AU9-100	arousal	0.29891915947129355		0.8269273145378975
id-1290_AU24-100_AU9-33	1	1	3	12	1	train	id-1290_AU24-100_AU9-33	emotion	Walging	0.3116262902463238	0.8948168661045202
id-1339_AU11-100_AU20-100_AU4-33	1	1	3	12	2	train	id-1339_AU11-100_AU20-100_AU4-33	emotion	Verrassing	0.249423518964901	0.9281693975717644
id-1302_AU12-66_AU43-33	1	1	3	12	3	test_extra	id-1302_AU12-66_AU43-33	emotion	Bang	0.10710590052964117	2.369776583229396
id-1367_AU11-100_AU16Open-66_AU25-100	1	1	3	12	4	test_extra	id-1367_AU11-100_AU16Open-66_AU25-100	emotion	Boos	0.3585224731077959	0.8696123727750091
id-1260_AU1-100_AU16Open-100_AU2-33	1	1	3	12	5	test_extra	id-1260_AU1-100_AU16Open-100_AU2-33	emotion	Verrassing	0.25053322342505124	0.953068411163258
id-1294_AU12-100_AU24-66_AU27i-33	1	1	3	12	6	test_extra	id-1294_AU12-100_AU24-66_AU27i-33	emotion	Verrassing	0.9829880637840506	1.219839460132789
id-1344_AU13-66_AU14-66_AU24-33_AU9-33	1	1	3	12	7	test	id-1344_AU13-66_AU14-66_AU24-33_AU9-33	emotion	Boos	0.7500922607777899	0.911171200867102
id-1260_AU12-100_AU4-66_AU43-66	1	1	3	12	8	test_extra	id-1260_AU12-100_AU4-66_AU43-66	emotion	Verdrietig	0.5473110129117091	0.8695972799032461
id-1289_AU17-33_AU26-66	1	1	3	12	9	test	id-1289_AU17-33_AU26-66	emotion	Verdrietig	0.08155408940555291	1.2030012478790009
id-1315_AU14-66_AU22-33_AU24-66_AU6-100	1	1	3	12	10	test_extra	id-1315_AU14-66_AU22-33_AU24-66_AU6-100	emotion	Blij	0.28071296100470805	0.7862767755104869
id-1266_AU17-33_AU24-33_AU26-66	1	1	3	12	11	train	id-1266_AU17-33_AU24-33_AU26-66	emotion	Boos	0.042888744259220624	0.8865994007537665
id-1293_AU1-33_AU27i-100_AU43-100_AU6-66	1	1	3	12	12	test_extra	id-1293_AU1-33_AU27i-100_AU43-100_AU6-66	emotion	Geen van allen	0.0	1.6363082592397404
id-1274_AU10Open-100_AU15-100	1	1	3	12	13	train	id-1274_AU10Open-100_AU15-100	emotion	Boos	0.4839593348586869	0.7444743484556966
id-1356_AU1-33_AU12-33_AU24-33_AU6-100	1	1	3	12	14	test_extra	id-1356_AU1-33_AU12-33_AU24-33_AU6-100	emotion	Verdrietig	0.5422816451336777	0.8945820210064994
id-1362_AU7-100	1	1	3	12	15	test_extra	id-1362_AU7-100	emotion	Verrassing	0.1181716650618521	1.5865340788004687
id-1366_AU14-33_AU2-100_AU26-100_AU27i-100	1	1	3	12	16	test	id-1366_AU14-33_AU2-100_AU26-100_AU27i-100	emotion	Verrassing	0.9361657286449222	0.8864342847300577
id-1306_AU15-66_AU26-66_AU5-66	1	1	3	12	17	test_extra	id-1306_AU15-66_AU26-66_AU5-66	emotion	Verrassing	0.8218792186991651	0.9697173587956058
id-1291_AU15-66_AU20-66_AU7-100	1	1	3	12	18	test_extra	id-1291_AU15-66_AU20-66_AU7-100	emotion	Boos	0.17420175831179793	0.6113217069905659
id-1363_AU1-33_AU15-100_AU2-66_AU22-66_AU5-100	1	1	3	12	19	test	id-1363_AU1-33_AU15-100_AU2-66_AU22-66_AU5-100	emotion	Geen van allen	0.0	1.694612025636161
id-1296_AU13-66_AU14-100_AU17-66	1	1	3	12	20	test_extra	id-1296_AU13-66_AU14-100_AU17-66	emotion	Blij	0.144771270072639	1.269644430034532
id-1297_AU2-66_AU22-66	1	1	3	12	21	test_extra	id-1297_AU2-66_AU22-66	emotion	Boos	0.1393013093633054	1.1362982979444496
id-1360_AU1-100_AU11-66	1	1	3	12	22	test	id-1360_AU1-100_AU11-66	emotion	Walging	0.0776975626560809	0.9446562477533008
id-1264_AU10Open-66_AU25-66_AU43-33	1	1	3	12	23	test_extra	id-1264_AU10Open-66_AU25-66_AU43-33	emotion	Boos	0.2764804312110397	1.3366573875682657
id-1311_AU24-66	1	1	3	12	24	test_extra	id-1311_AU24-66	emotion	Bang	0.09440198672530188	1.5532642562757246
id-1355_AU24-66_AU25-100_AU43-33	1	1	3	12	25	test_extra	id-1355_AU24-66_AU25-100_AU43-33	emotion	Verdrietig	0.05169690892748291	1.29467595904498
id-1264_AU10Open-33_AU11-100_AU2-66_AU20-100	1	1	3	12	26	train	id-1264_AU10Open-33_AU11-100_AU2-66_AU20-100	emotion	Bang	0.3949874201922226	1.5280618759497884
id-1341_AU1-33_AU15-33_AU2-66_AU4-33	1	1	3	12	27	test	id-1341_AU1-33_AU15-33_AU2-66_AU4-33	emotion	Walging	0.13586558508701174	1.3280514316793417
id-1360_AU13-100_AU2-66_AU24-33	1	1	3	12	28	test_extra	id-1360_AU13-100_AU2-66_AU24-33	emotion	Geen van allen	0.0	0.7862873405210848
id-1363_AU2-66_AU24-100_AU26-33	1	1	3	12	29	train	id-1363_AU2-66_AU24-100_AU26-33	emotion	Verrassing	0.8216351659324536	1.4699286590112024
id-1294_AU11-33_AU14-33_AU17-33_AU4-100	1	1	3	12	30	test_extra	id-1294_AU11-33_AU14-33_AU17-33_AU4-100	emotion	Blij	0.5733039053199346	0.9696754006108677
id-1274_AU10Open-66_AU2-33_AU43-100_AU9-66	1	1	3	12	31	test	id-1274_AU10Open-66_AU2-33_AU43-100_AU9-66	emotion	Boos	0.9873163224265032	0.4863261593891366
id-1269_AU16Open-66_AU5-100	1	1	3	12	32	train	id-1269_AU16Open-66_AU5-100	emotion	Boos	0.2418664778405785	0.9032646486884914
id-1307_AU17-66_AU2-100_AU7-66	1	1	3	12	33	train	id-1307_AU17-66_AU2-100_AU7-66	emotion	Walging	0.06269704926556734	1.8697584717774591
id-1377_AU17-33_AU2-33_AU25-66_AU4-33_AU7-100	1	1	3	12	34	test_extra	id-1377_AU17-33_AU2-33_AU25-66_AU4-33_AU7-100	emotion	Verdrietig	0.3331345014168343	3.7366305826253683
id-1269_AU1-66_AU16Open-33_AU20-66	1	1	3	12	35	train	id-1269_AU1-66_AU16Open-33_AU20-66	emotion	Bang	0.05647766431467535	1.1196870824933285
id-1335_AU20-33_AU22-100_AU4-100_AU7-66	1	1	3	12	36	test_extra	id-1335_AU20-33_AU22-100_AU4-100_AU7-66	emotion	Geen van allen	0.0	0.5112734701688169
id-1380_AU10Open-33_AU13-33_AU16Open-100_AU22-33_AU43-66	1	1	4	13	1	test	id-1380_AU10Open-33_AU13-33_AU16Open-100_AU22-33_AU43-66	valence	-0.05434893808568974		3.4535797576827463
id-1380_AU10Open-33_AU13-33_AU16Open-100_AU22-33_AU43-66	1	1	4	13	1	test	id-1380_AU10Open-33_AU13-33_AU16Open-100_AU22-33_AU43-66	arousal	0.26902724352416424		3.4535797576827463
id-1376_AU27i-66_AU6-100	1	1	4	13	2	train	id-1376_AU27i-66_AU6-100	valence	-0.5842510844211647		0.5521473837106896
id-1376_AU27i-66_AU6-100	1	1	4	13	2	train	id-1376_AU27i-66_AU6-100	arousal	0.7826247084339323		0.5521473837106896
id-1370_AU17-66_AU20-66_AU26-66_AU5-100	1	1	4	13	3	train	id-1370_AU17-66_AU20-66_AU26-66_AU5-100	valence	-0.5108800180054835		0.5186101154831704
id-1370_AU17-66_AU20-66_AU26-66_AU5-100	1	1	4	13	3	train	id-1370_AU17-66_AU20-66_AU26-66_AU5-100	arousal	0.24457022138560386		0.5186101154831704
id-1290_AU20-100_AU43-100	1	1	4	13	4	train	id-1290_AU20-100_AU43-100	valence	-0.23370043376846586		0.6187667191297805
id-1290_AU20-100_AU43-100	1	1	4	13	4	train	id-1290_AU20-100_AU43-100	arousal	0.13858979211850886		0.6187667191297805
id-1341_AU15-66_AU2-100_AU26-33_AU4-66	1	1	4	13	5	test_extra	id-1341_AU15-66_AU2-100_AU26-33_AU4-66	valence	-0.14130723902279332		0.6853465112217236
id-1341_AU15-66_AU2-100_AU26-33_AU4-66	1	1	4	13	5	test_extra	id-1341_AU15-66_AU2-100_AU26-33_AU4-66	arousal	0.4782706551540697		0.6853465112217236
id-1342_AU1-33_AU20-66_AU7-33	1	1	4	13	6	train	id-1342_AU1-33_AU20-66_AU7-33	valence	-0.40761703564267293		0.6021325625079044
id-1342_AU1-33_AU20-66_AU7-33	1	1	4	13	6	train	id-1342_AU1-33_AU20-66_AU7-33	arousal	0.05434893808568974		0.6021325625079044
id-1354_AU1-66_AU10Open-100	1	1	4	13	7	test	id-1354_AU1-66_AU10Open-100	valence	-0.4592485268240783		0.6366753178990621
id-1354_AU1-66_AU10Open-100	1	1	4	13	7	test	id-1354_AU1-66_AU10Open-100	arousal	0.05163149118140525		0.6366753178990621
id-1289_AU1-100_AU13-100_AU4-33	1	1	4	13	8	train	id-1289_AU1-100_AU13-100_AU4-33	valence	-0.23913532757703485		0.7269726535269001
id-1289_AU1-100_AU13-100_AU4-33	1	1	4	13	8	train	id-1289_AU1-100_AU13-100_AU4-33	arousal	0.057066384989974225		0.7269726535269001
id-1323_AU11-66_AU4-33_AU5-100_AU9-66	1	1	4	13	9	train	id-1323_AU11-66_AU4-33_AU5-100_AU9-66	valence	-0.1875038363956296		0.7355043524803477
id-1323_AU11-66_AU4-33_AU5-100_AU9-66	1	1	4	13	9	train	id-1323_AU11-66_AU4-33_AU5-100_AU9-66	arousal	0.04347915046855179		0.7355043524803477
id-1293_AU17-66_AU22-100_AU26-100_AU5-100	1	1	4	13	10	test_extra	id-1293_AU17-66_AU22-100_AU26-100_AU5-100	valence	-0.3288110754184229		0.5704825070570223
id-1293_AU17-66_AU22-100_AU26-100_AU5-100	1	1	4	13	10	test_extra	id-1293_AU17-66_AU22-100_AU26-100_AU5-100	arousal	0.07608851331996565		0.5704825070570223
id-1318_AU24-33	1	1	4	13	11	test_extra	id-1318_AU24-33	valence	-0.14674213283136228		0.7686748639061989
id-1318_AU24-33	1	1	4	13	11	test_extra	id-1318_AU24-33	arousal	0.0625012787985432		0.7686748639061989
id-1380_AU13-66_AU20-66_AU22-100_AU5-100	1	1	4	13	12	test_extra	id-1380_AU13-66_AU20-66_AU22-100_AU5-100	valence	-0.14945957973564675		1.5355548834195358
id-1380_AU13-66_AU20-66_AU22-100_AU5-100	1	1	4	13	12	test_extra	id-1380_AU13-66_AU20-66_AU22-100_AU5-100	arousal	0.1250025575970864		1.5355548834195358
id-1285_AU11-33_AU20-66_AU4-66	1	1	4	13	13	train	id-1285_AU11-33_AU20-66_AU4-66	valence	-0.15761192044850025		0.4521459347961354
id-1285_AU11-33_AU20-66_AU4-66	1	1	4	13	13	train	id-1285_AU11-33_AU20-66_AU4-66	arousal	0.06793617260711217		0.4521459347961354
id-1285_AU12-33_AU17-100_AU26-100_AU43-66	1	1	4	13	14	train	id-1285_AU12-33_AU17-100_AU26-100_AU43-66	valence	-0.21196085853419		1.2687572709910455
id-1285_AU12-33_AU17-100_AU26-100_AU43-66	1	1	4	13	14	train	id-1285_AU12-33_AU17-100_AU26-100_AU43-66	arousal	0.4891404427712077		1.2687572709910455
id-1362_AU5-33_AU6-66_AU7-33	1	1	4	13	15	test	id-1362_AU5-33_AU6-66_AU7-33	valence	-0.07608851331996565		0.5685913701381651
id-1362_AU5-33_AU6-66_AU7-33	1	1	4	13	15	test	id-1362_AU5-33_AU6-66_AU7-33	arousal	0.05163149118140525		0.5685913701381651
id-1363_AU14-66	1	1	4	13	16	test_extra	id-1363_AU14-66	valence	0.03804425665998282		0.5103461640865135
id-1363_AU14-66	1	1	4	13	16	test_extra	id-1363_AU14-66	arousal	0.07337106641568114		0.5103461640865135
id-1279_AU12-33_AU4-100_AU5-66_AU7-33	1	1	4	13	17	train	id-1279_AU12-33_AU4-100_AU5-66_AU7-33	valence	-0.40761703564267293		0.6519284766909549
id-1279_AU12-33_AU4-100_AU5-66_AU7-33	1	1	4	13	17	train	id-1279_AU12-33_AU4-100_AU5-66_AU7-33	arousal	0.06793617260711217		0.6519284766909549
id-1345_AU11-100_AU20-66	1	1	4	13	18	train	id-1345_AU11-100_AU20-66	valence	-0.2255480930556124		0.5604249186944799
id-1345_AU11-100_AU20-66	1	1	4	13	18	train	id-1345_AU11-100_AU20-66	arousal	0.11141532307566396		0.5604249186944799
id-1295_AU10Open-33_AU11-66_AU17-33_AU5-100	1	1	4	13	19	train	id-1295_AU10Open-33_AU11-66_AU17-33_AU5-100	valence	-0.6630570446454148		0.5188208119834599
id-1295_AU10Open-33_AU11-66_AU17-33_AU5-100	1	1	4	13	19	train	id-1295_AU10Open-33_AU11-66_AU17-33_AU5-100	arousal	0.2554400090027418		0.5188208119834599
id-1293_AU22-66_AU25-100_AU5-33_AU9-33	1	1	4	13	20	test	id-1293_AU22-66_AU25-100_AU5-33_AU9-33	valence	-0.7337106641568115		1.4105928419958218
id-1293_AU22-66_AU25-100_AU5-33_AU9-33	1	1	4	13	20	test	id-1293_AU22-66_AU25-100_AU5-33_AU9-33	arousal	0.4972927834840611		1.4105928419958218
id-1367_AU1-66_AU10Open-66_AU15-33_AU6-100	1	1	4	13	21	train	id-1367_AU1-66_AU10Open-66_AU15-33_AU6-100	valence	-0.4103344825469576		1.4105466578039343
id-1367_AU1-66_AU10Open-66_AU15-33_AU6-100	1	1	4	13	21	train	id-1367_AU1-66_AU10Open-66_AU15-33_AU6-100	arousal	0.05163149118140525		1.4105466578039343
id-1310_AU10Open-100_AU2-66_AU9-100	1	1	4	13	22	train	id-1310_AU10Open-100_AU2-66_AU9-100	valence	-0.5326195932397594		0.6604828149538662
id-1310_AU10Open-100_AU2-66_AU9-100	1	1	4	13	22	train	id-1310_AU10Open-100_AU2-66_AU9-100	arousal	0.09239319474567256		0.6604828149538662
id-1341_AU14-33_AU4-100_AU7-66	1	1	4	13	23	test_extra	id-1341_AU14-33_AU4-100_AU7-66	valence	-0.2527225620984573		0.4270329042738013
id-1341_AU14-33_AU4-100_AU7-66	1	1	4	13	23	test_extra	id-1341_AU14-33_AU4-100_AU7-66	arousal	0.05978383189425871		0.4270329042738013
id-1376_AU10Open-100_AU11-66_AU25-33_AU27i-66_AU9-100	1	1	4	13	24	test_extra	id-1376_AU10Open-100_AU11-66_AU25-33_AU27i-66_AU9-100	valence	-0.26902724352416424		0.2769952626476879
id-1376_AU10Open-100_AU11-66_AU25-33_AU27i-66_AU9-100	1	1	4	13	24	test_extra	id-1376_AU10Open-100_AU11-66_AU25-33_AU27i-66_AU9-100	arousal	0.09239319474567256		0.2769952626476879
id-1362_AU1-100_AU26-66	1	1	4	13	25	test_extra	id-1362_AU1-100_AU26-66	valence	-0.5407719339526129		0.8438346521506901
id-1362_AU1-100_AU26-66	1	1	4	13	25	test_extra	id-1362_AU1-100_AU26-66	arousal	0.7309932172525271		0.8438346521506901
id-1280_AU11-33_AU16Open-66_AU25-66_AU7-33	1	1	4	13	26	train	id-1280_AU11-33_AU16Open-66_AU25-66_AU7-33	valence	-0.12228511069280193		1.2937737071260926
id-1280_AU11-33_AU16Open-66_AU25-66_AU7-33	1	1	4	13	26	train	id-1280_AU11-33_AU16Open-66_AU25-66_AU7-33	arousal	0.19293873020419855		1.2937737071260926
id-1273_AU12-100_AU16Open-33_AU20-100_AU22-66_AU5-66	1	1	4	13	27	test	id-1273_AU12-100_AU16Open-33_AU20-100_AU22-66_AU5-66	valence	0.2282655399598969		0.6185584374870814
id-1273_AU12-100_AU16Open-33_AU20-100_AU22-66_AU5-66	1	1	4	13	27	test	id-1273_AU12-100_AU16Open-33_AU20-100_AU22-66_AU5-66	arousal	0.3777251196955437		0.6185584374870814
id-1274_AU14-100_AU26-33	1	1	4	13	28	train	id-1274_AU14-100_AU26-33	valence	-0.4755532082497852		0.7770809901667235
id-1274_AU14-100_AU26-33	1	1	4	13	28	train	id-1274_AU14-100_AU26-33	arousal	0.26359234971559525		0.7770809901667235
id-1293_AU10Open-100_AU11-33_AU14-33_AU22-33_AU27i-33	1	1	4	13	29	train	id-1293_AU10Open-100_AU11-33_AU14-33_AU22-33_AU27i-33	valence	-0.5978383189425871		0.5854344121144095
id-1293_AU10Open-100_AU11-33_AU14-33_AU22-33_AU27i-33	1	1	4	13	29	train	id-1293_AU10Open-100_AU11-33_AU14-33_AU22-33_AU27i-33	arousal	0.4809881020583541		0.5854344121144095
id-1341_AU12-33_AU2-66_AU20-33_AU24-66_AU5-33	1	1	4	13	30	test_extra	id-1341_AU12-33_AU2-66_AU20-33_AU24-66_AU5-33	valence	-0.21467830543847446		1.252136396102287
id-1341_AU12-33_AU2-66_AU20-33_AU24-66_AU5-33	1	1	4	13	30	test_extra	id-1341_AU12-33_AU2-66_AU20-33_AU24-66_AU5-33	arousal	0.11141532307566396		1.252136396102287
id-1358_AU15-66_AU2-33_AU26-66	1	1	4	13	31	test_extra	id-1358_AU15-66_AU2-33_AU26-66	valence	-0.2798970311413021		0.6686827725752664
id-1358_AU15-66_AU2-33_AU26-66	1	1	4	13	31	test_extra	id-1358_AU15-66_AU2-33_AU26-66	arousal	0.2500051151941728		0.6686827725752664
id-1310_AU12-33_AU14-33_AU22-100_AU6-100	1	1	4	13	32	test	id-1310_AU12-33_AU14-33_AU22-100_AU6-100	valence	-0.5543591684740353		1.0853396288730437
id-1310_AU12-33_AU14-33_AU22-100_AU6-100	1	1	4	13	32	test	id-1310_AU12-33_AU14-33_AU22-100_AU6-100	arousal	0.057066384989974225		1.0853396288730437
id-1378_AU14-66_AU16Open-66	1	1	4	13	33	train	id-1378_AU14-66_AU16Open-66	valence	-0.4103344825469576		1.7940299841066008
id-1378_AU14-66_AU16Open-66	1	1	4	13	33	train	id-1378_AU14-66_AU16Open-66	arousal	0.11956766378851742		1.7940299841066008
id-1341_AU27i-66_AU43-33	1	1	4	13	34	train	id-1341_AU27i-66_AU43-33	valence	-0.23370043376846586		0.551947252224636
id-1341_AU27i-66_AU43-33	1	1	4	13	34	train	id-1341_AU27i-66_AU43-33	arousal	0.24457022138560386		0.551947252224636
id-1355_AU26-33_AU7-100	1	1	4	13	35	test_extra	id-1355_AU26-33_AU7-100	valence	-0.8750179031796047		0.7937592179732746
id-1355_AU26-33_AU7-100	1	1	4	13	35	test_extra	id-1355_AU26-33_AU7-100	arousal	0.057066384989974225		0.7937592179732746
id-1318_AU22-100_AU26-100_AU27i-33_AU4-33_AU6-33	1	1	4	13	36	test	id-1318_AU22-100_AU26-100_AU27i-33_AU4-33_AU6-33	valence	-0.8097991774767771		0.9436954354896444
id-1318_AU22-100_AU26-100_AU27i-33_AU4-33_AU6-33	1	1	4	13	36	test	id-1318_AU22-100_AU26-100_AU27i-33_AU4-33_AU6-33	arousal	0.2201131992470434		0.9436954354896444
id-1335_AU24-100_AU25-100_AU27i-66	1	1	4	14	1	test_extra	id-1335_AU24-100_AU25-100_AU27i-66	emotion	Blij	0.2811171792027221	1.4303841256769374
id-1366_AU15-66_AU24-33_AU4-100_AU9-100	1	1	4	14	2	test_extra	id-1366_AU15-66_AU24-33_AU4-100_AU9-100	emotion	Verrassing	0.18155318094994524	0.7198104818162392
id-1358_AU2-33_AU4-33_AU9-100	1	1	4	14	3	test_extra	id-1358_AU2-33_AU4-33_AU9-100	emotion	Verdrietig	0.1129722785752643	1.8448682120579176
id-1378_AU12-100_AU13-33_AU2-100_AU27i-100	1	1	4	14	4	train	id-1378_AU12-100_AU13-33_AU2-100_AU27i-100	emotion	Blij	0.5478176296397864	0.8639489233028144
id-1354_AU12-33_AU13-33	1	1	4	14	5	test_extra	id-1354_AU12-33_AU13-33	emotion	Blij	0.0016012355171969304	1.6447949814355525
id-1296_AU1-66_AU11-33	1	1	4	14	6	test_extra	id-1296_AU1-66_AU11-33	emotion	Geen van allen	0.0	0.6280992458996479
id-1289_AU11-100_AU7-100	1	1	4	14	7	train	id-1289_AU11-100_AU7-100	emotion	Walging	0.3692076923747572	0.6448432786273771
id-1310_AU2-66	1	1	4	14	8	test_extra	id-1310_AU2-66	emotion	Verrassing	0.026178482420326648	1.7032786548734289
id-1309_AU20-100_AU25-66	1	1	4	14	9	train	id-1309_AU20-100_AU25-66	emotion	Boos	0.5962303030402003	0.7463485813605075
id-1285_AU16Open-33_AU5-33	1	1	4	14	10	test	id-1285_AU16Open-33_AU5-33	emotion	Walging	0.078785136082352	0.7447870727701229
