	rep	session	run	block	trial	data_split	trial_type	rating_type	rating	rating_intensity	rating_RT
id-1362_AU17-33_AU5-33	1	1	1	1	1	test_extra	id-1362_AU17-33_AU5-33	emotion	Verrassing	0.4712761407129468	4.153468855253777
id-1291_AU4-100_AU43-33_AU7-66	1	1	1	1	2	test	id-1291_AU4-100_AU43-33_AU7-66	emotion	Verdrietig	0.5177188579108359	1.2529957842589283
id-1270_AU10Open-66_AU12-33_AU14-33	1	1	1	1	3	train	id-1270_AU10Open-66_AU12-33_AU14-33	emotion	Blij	0.6919787117847901	1.194693527149866
id-1264_AU1-100_AU4-100	1	1	1	1	4	test_extra	id-1264_AU1-100_AU4-100	emotion	Verdrietig	0.3920448298977266	2.119782167590074
id-1342_AU1-100_AU14-100_AU15-66_AU5-100_AU7-100	1	1	1	1	5	test	id-1342_AU1-100_AU14-100_AU15-66_AU5-100_AU7-100	emotion	Blij	0.2740582538987593	3.4032863824254487
id-1363_AU2-100_AU25-100_AU26-100_AU27i-66	1	1	1	1	6	train	id-1363_AU2-100_AU25-100_AU26-100_AU27i-66	emotion	Verrassing	0.8809952676568381	1.7281188062625006
id-1380_AU12-66_AU4-33	1	1	1	1	7	test_extra	id-1380_AU12-66_AU4-33	emotion	Walging	0.3663396449417377	3.811685626333201
id-1341_AU11-33_AU13-100_AU43-33_AU5-66	1	1	1	1	8	train	id-1341_AU11-33_AU13-100_AU43-33_AU5-66	emotion	Walging	0.536301855810096	2.2365065192152542
id-1260_AU13-33_AU4-66	1	1	1	1	9	test_extra	id-1260_AU13-33_AU4-66	emotion	Verdrietig	0.420397086395106	0.9529452533220136
id-1341_AU14-33_AU4-100_AU7-66	1	1	1	1	10	train	id-1341_AU14-33_AU4-100_AU7-66	emotion	Verrassing	0.3916939171676848	2.2032152648102965
id-1358_AU2-33_AU4-33_AU9-100	1	1	1	1	11	test_extra	id-1358_AU2-33_AU4-33_AU9-100	emotion	Boos	0.2377990328924528	1.56966266222571
id-1302_AU20-66_AU4-33_AU5-33	1	1	1	1	12	train	id-1302_AU20-66_AU4-33_AU5-33	emotion	Boos	0.3633233442428573	1.1696191343817188
id-1291_AU15-100_AU22-66	1	1	1	1	13	test_extra	id-1291_AU15-100_AU22-66	emotion	Walging	0.18087420613574312	4.720192331492399
id-1344_AU13-100_AU16Open-66_AU43-100	1	1	1	1	14	test_extra	id-1344_AU13-100_AU16Open-66_AU43-100	emotion	Blij	0.5032391135986266	2.0779492529331947
id-1347_AU13-100_AU14-66_AU17-100_AU27i-66_AU7-100	1	1	1	1	15	test	id-1347_AU13-100_AU14-66_AU17-100_AU27i-66_AU7-100	emotion	Blij	0.1086252945696456	0.8698451048680909
id-1363_AU1-33_AU15-100_AU2-66_AU22-66_AU5-100	1	1	1	1	16	test	id-1363_AU1-33_AU15-100_AU2-66_AU22-66_AU5-100	emotion	Bang	0.4545044541284269	1.1530039947815571
id-1269_AU16Open-66_AU5-100	1	1	1	1	17	test_extra	id-1269_AU16Open-66_AU5-100	emotion	Boos	0.543860683296164	1.7279521809500693
id-1297_AU22-66_AU9-100	1	1	1	1	18	train	id-1297_AU22-66_AU9-100	emotion	Boos	0.6284542524069919	1.1030025156801455
id-1315_AU10Open-100_AU12-66_AU43-100	1	1	1	1	19	train	id-1315_AU10Open-100_AU12-66_AU43-100	emotion	Blij	0.30717145730474993	3.4533162361276477
id-1294_AU12-33_AU13-33_AU15-100_AU22-33	1	1	1	1	20	train	id-1294_AU12-33_AU13-33_AU15-100_AU22-33	emotion	Blij	0.5359872261101902	1.2030646379430436
id-1290_AU22-33	1	1	1	1	21	test_extra	id-1290_AU22-33	emotion	Geen van allen	0.0	0.9779456910150656
id-1355_AU24-66_AU25-100_AU43-33	1	1	1	1	22	train	id-1355_AU24-66_AU25-100_AU43-33	emotion	Verdrietig	0.5228180664107737	1.6864165958813828
id-1373_AU11-33_AU13-100_AU16Open-66_AU43-33	1	1	1	1	23	test	id-1373_AU11-33_AU13-100_AU16Open-66_AU43-33	emotion	Bang	0.16237888897431954	0.7946998057850578
id-1355_AU13-66_AU2-66_AU6-33	1	1	1	1	24	train	id-1355_AU13-66_AU2-66_AU6-33	emotion	Walging	0.2401406209922589	1.0862119969015112
id-1309_AU10Open-100_AU2-100_AU27i-33	1	1	1	1	25	test_extra	id-1309_AU10Open-100_AU2-100_AU27i-33	emotion	Verrassing	0.8748756834202807	1.0196515236862072
id-1342_AU10Open-66_AU25-66_AU26-33_AU5-100	1	1	1	1	26	test_extra	id-1342_AU10Open-66_AU25-66_AU26-33_AU5-100	emotion	Boos	0.8020518068582687	1.0279752428596112
id-1356_AU24-33_AU27i-33	1	1	1	1	27	test_extra	id-1356_AU24-33_AU27i-33	emotion	Verrassing	0.3357520407105579	1.1863290572205187
id-1318_AU1-33_AU16Open-33_AU20-100_AU43-66	1	1	1	1	28	train	id-1318_AU1-33_AU16Open-33_AU20-100_AU43-66	emotion	Boos	0.2754813280591369	3.836651954134596
id-1269_AU10Open-66_AU20-66_AU26-66_AU43-66	1	1	1	1	29	test	id-1269_AU10Open-66_AU20-66_AU26-66_AU43-66	emotion	Walging	0.24701299673937585	3.811687739334957
id-1361_AU13-66_AU6-33	1	1	1	1	30	train	id-1361_AU13-66_AU6-33	emotion	Walging	0.4836271088311759	1.6614798501095718
id-1344_AU17-33_AU6-33_AU7-33	1	1	1	1	31	test_extra	id-1344_AU17-33_AU6-33_AU7-33	emotion	Boos	0.12706631333594126	1.2696085089992266
id-1293_AU17-66_AU22-100_AU26-100_AU5-100	1	1	1	1	32	train	id-1293_AU17-66_AU22-100_AU26-100_AU5-100	emotion	Bang	0.8924643407982065	3.1116769932100405
id-1289_AU14-33_AU25-100_AU27i-66_AU7-33	1	1	1	1	33	test_extra	id-1289_AU14-33_AU25-100_AU27i-66_AU7-33	emotion	Verrassing	0.5763403065076024	1.0697441637371412
id-1355_AU13-66_AU14-100_AU15-100_AU7-33	1	1	1	1	34	test	id-1355_AU13-66_AU14-100_AU15-100_AU7-33	emotion	Blij	0.15767162289280348	3.7200287247551382
id-1290_AU10Open-33_AU2-66_AU9-33	1	1	1	1	35	test_extra	id-1290_AU10Open-33_AU2-66_AU9-33	emotion	Walging	0.5124851796959725	1.0364456647535008
id-1297_AU20-33_AU22-33_AU26-66	1	1	1	1	36	train	id-1297_AU20-33_AU22-33_AU26-66	emotion	Verrassing	0.44237984724096097	1.2113952998379318
id-1377_AU14-33_AU5-100_AU6-66	1	1	1	2	1	test_extra	id-1377_AU14-33_AU5-100_AU6-66	emotion	Blij	0.3052052493788132	1.003006500198353
id-1302_AU12-66_AU43-33	1	1	1	2	2	test_extra	id-1302_AU12-66_AU43-33	emotion	Verdrietig	0.2827863273512808	1.65309847616345
id-1344_AU13-66_AU14-66_AU24-33_AU9-33	1	1	1	2	3	test	id-1344_AU13-66_AU14-66_AU24-33_AU9-33	emotion	Boos	0.3818138629797999	1.6612102914073148
id-1280_AU1-66_AU17-100_AU26-33	1	1	1	2	4	test_extra	id-1280_AU1-66_AU17-100_AU26-33	emotion	Bang	0.4219018105674974	1.1364401709479353
id-1264_AU15-66_AU24-33_AU4-100	1	1	1	2	5	train	id-1264_AU15-66_AU24-33_AU4-100	emotion	Verdrietig	0.6190250170686279	1.2277749906274948
id-1296_AU12-100_AU9-33	1	1	1	2	6	train	id-1296_AU12-100_AU9-33	emotion	Walging	0.4028423578934191	1.1279987273687766
id-1358_AU2-66_AU22-33_AU7-66	1	1	1	2	7	train	id-1358_AU2-66_AU22-33_AU7-66	emotion	Walging	0.7489952257569906	0.9696352535693222
id-1285_AU27i-100_AU4-33_AU6-100	1	1	1	2	8	train	id-1285_AU27i-100_AU4-33_AU6-100	emotion	Verrassing	0.4084884584097968	1.2280526994809406
id-1344_AU16Open-33	1	1	1	2	9	test_extra	id-1344_AU16Open-33	emotion	Boos	0.4991455661314148	0.7612337759169351
id-1285_AU26-100_AU4-66_AU7-100_AU9-33	1	1	1	2	10	test_extra	id-1285_AU26-100_AU4-66_AU7-100_AU9-33	emotion	Walging	0.9067407217371428	1.0194311677478254
id-1296_AU1-66_AU17-100_AU27i-33_AU4-66_AU5-100	1	1	1	2	11	test	id-1296_AU1-66_AU17-100_AU27i-33_AU4-66_AU5-100	emotion	Verdrietig	0.4019680713667418	0.8529160335206143
id-1297_AU10Open-100_AU6-100	1	1	1	2	12	train	id-1297_AU10Open-100_AU6-100	emotion	Walging	0.3925842656856141	1.5284189733101812
id-1360_AU10Open-66_AU20-33	1	1	1	2	13	train	id-1360_AU10Open-66_AU20-33	emotion	Walging	0.19034680821192607	5.47856872479133
id-1366_AU11-66_AU14-66_AU9-33	1	1	1	2	14	test_extra	id-1366_AU11-66_AU14-66_AU9-33	emotion	Boos	0.2485529858625785	1.102952105486111
id-1294_AU10Open-66_AU27i-66_AU43-33_AU7-66	1	1	1	2	15	test_extra	id-1294_AU10Open-66_AU27i-66_AU43-33_AU7-66	emotion	Verrassing	0.4146418843086663	1.5865081190599994
id-1367_AU1-100_AU22-33_AU26-100	1	1	1	2	16	test_extra	id-1367_AU1-100_AU22-33_AU26-100	emotion	Verrassing	0.7593862956683012	1.4947525100956227
id-1356_AU13-100_AU25-33_AU26-100	1	1	1	2	17	test_extra	id-1356_AU13-100_AU25-33_AU26-100	emotion	Verrassing	0.6714830277103853	1.219723546873411
id-1273_AU15-66_AU20-66_AU5-66	1	1	1	2	18	train	id-1273_AU15-66_AU20-66_AU5-66	emotion	Verrassing	0.3562496843968081	2.04478508051443
id-1293_AU6-33_AU7-66	1	1	1	2	19	test_extra	id-1293_AU6-33_AU7-66	emotion	Walging	0.31314743196575523	2.2115927146101058
id-1306_AU11-33_AU16Open-66	1	1	1	2	20	test_extra	id-1306_AU11-33_AU16Open-66	emotion	Boos	0.2487344973692865	1.819727108791085
id-1270_AU12-33_AU15-33_AU17-100_AU24-66	1	1	1	2	21	test_extra	id-1270_AU12-33_AU15-33_AU17-100_AU24-66	emotion	Walging	0.3869212079074899	0.8946985379834587
id-1309_AU15-33	1	1	1	2	22	test	id-1309_AU15-33	emotion	Boos	0.3298254588756861	2.836539361305768
id-1380_AU2-33_AU25-100_AU7-33	1	1	1	2	23	test_extra	id-1380_AU2-33_AU25-100_AU7-33	emotion	Boos	0.3892674863428232	0.8696956854305427
id-1378_AU15-100_AU16Open-66_AU26-66_AU7-100	1	1	1	2	24	test_extra	id-1378_AU15-100_AU16Open-66_AU26-66_AU7-100	emotion	Bang	0.426045541733447	1.0447413111842252
id-1294_AU11-66_AU20-33_AU25-33	1	1	1	2	25	test	id-1294_AU11-66_AU20-33_AU25-33	emotion	Bang	0.22349311154175847	0.9363135115618206
id-1273_AU11-33_AU14-33_AU26-100	1	1	1	2	26	test_extra	id-1273_AU11-33_AU14-33_AU26-100	emotion	Blij	0.6419478273150272	0.7363133304479561
id-1315_AU12-66_AU17-33_AU2-100_AU4-100	1	1	1	2	27	test	id-1315_AU12-66_AU17-33_AU2-100_AU4-100	emotion	Blij	0.5634309899258105	0.9947057221911564
id-1295_AU1-33_AU14-33_AU6-66	1	1	1	2	28	test_extra	id-1295_AU1-33_AU14-33_AU6-66	emotion	Verrassing	0.3954078099742571	5.811968466763574
id-1363_AU13-100_AU20-66_AU22-66_AU5-66	1	1	1	2	29	test_extra	id-1363_AU13-100_AU20-66_AU22-66_AU5-66	emotion	Bang	0.5338095597106962	0.944594366977526
id-1311_AU27i-100_AU4-66	1	1	1	2	30	train	id-1311_AU27i-100_AU4-66	emotion	Verrassing	0.7084488688021492	0.9114193276909646
id-1323_AU12-66_AU16Open-33_AU7-66_AU9-100	1	1	1	2	31	test	id-1323_AU12-66_AU16Open-33_AU7-66_AU9-100	emotion	Blij	0.3794631688501316	1.5863221748704746
id-1361_AU12-33_AU15-33_AU16Open-100_AU6-66	1	1	1	2	32	test	id-1361_AU12-33_AU15-33_AU16Open-100_AU6-66	emotion	Blij	0.4778517113100337	0.9201007479423424
id-1302_AU1-33_AU14-100_AU27i-100_AU9-100	1	1	1	2	33	train	id-1302_AU1-33_AU14-100_AU27i-100_AU9-100	emotion	Bang	0.8371699735682713	1.061327774326401
id-1260_AU17-33_AU24-100_AU6-33	1	1	1	2	34	test_extra	id-1260_AU17-33_AU24-100_AU6-33	emotion	Walging	0.364715428040966	0.8113303401150915
id-1266_AU25-33_AU4-33	1	1	1	2	35	test_extra	id-1266_AU25-33_AU4-33	emotion	Verrassing	0.459532565466376	0.977945389157412
id-1347_AU4-33_AU43-66_AU9-66	1	1	1	2	36	train	id-1347_AU4-33_AU43-66_AU9-66	emotion	Verdrietig	0.502668725423279	1.9696793247571804
id-1360_AU1-100_AU11-66	1	1	1	3	1	test	id-1360_AU1-100_AU11-66	emotion	Walging	0.3383659645331715	1.1613041690739008
id-1273_AU1-100_AU14-66_AU25-33_AU5-100	1	1	1	3	2	train	id-1273_AU1-100_AU14-66_AU25-33_AU5-100	emotion	Blij	0.6910475941657608	1.0279012877840614
id-1370_AU10Open-100_AU2-33_AU27i-66_AU5-66	1	1	1	3	3	test	id-1370_AU10Open-100_AU2-33_AU27i-66_AU5-66	emotion	Verrassing	0.494844388930149	1.9280610307469035
id-1335_AU43-66_AU5-66	1	1	1	3	4	test	id-1335_AU43-66_AU5-66	emotion	Geen van allen	0.0	1.8113738075871881
id-1309_AU26-33_AU5-66	1	1	1	3	5	test_extra	id-1309_AU26-33_AU5-66	emotion	Bang	0.35835977362277244	1.144588510943322
id-1323_AU2-33_AU22-66	1	1	1	3	6	train	id-1323_AU2-33_AU22-66	emotion	Bang	0.6021296453652821	1.3363597561233291
id-1339_AU12-33_AU14-100_AU16Open-33	1	1	1	3	7	test_extra	id-1339_AU12-33_AU14-100_AU16Open-33	emotion	Blij	0.8721652602595885	0.7531104900895116
id-1306_AU11-33_AU6-66	1	1	1	3	8	train	id-1306_AU11-33_AU6-66	emotion	Boos	0.3800793659926518	1.2780931181932829
id-1274_AU10Open-66_AU2-33_AU43-100_AU9-66	1	1	1	3	9	test	id-1274_AU10Open-66_AU2-33_AU43-100_AU9-66	emotion	Boos	0.7753128927031092	1.7031011626945656
id-1306_AU22-66_AU25-33_AU43-33	1	1	1	3	10	test_extra	id-1306_AU22-66_AU25-33_AU43-33	emotion	Walging	0.2051849941266161	1.0862503327975899
id-1279_AU22-33_AU26-33_AU4-33	1	1	1	3	11	test	id-1279_AU22-33_AU26-33_AU4-33	emotion	Verdrietig	0.6094553361375445	0.928150984266722
id-1355_AU11-100_AU15-100_AU2-66_AU25-33	1	1	1	3	12	test_extra	id-1355_AU11-100_AU15-100_AU2-66_AU25-33	emotion	Walging	0.2797233311356963	1.7614601690038398
id-1266_AU11-66_AU17-100_AU7-33	1	1	1	3	13	train	id-1266_AU11-66_AU17-100_AU7-33	emotion	Walging	0.549861556116869	0.8780990949712759
id-1318_AU10Open-33_AU11-33_AU16Open-100_AU26-66_AU7-66	1	1	1	3	14	test_extra	id-1318_AU10Open-33_AU11-33_AU16Open-100_AU26-66_AU7-66	emotion	Verrassing	0.9263841037026443	0.8946529575086971
id-1290_AU13-100_AU20-33_AU25-33	1	1	1	3	15	test_extra	id-1290_AU13-100_AU20-33_AU25-33	emotion	Boos	0.3224421134684536	0.9863611748533004
id-1354_AU10Open-33_AU17-66_AU6-66_AU7-100	1	1	1	3	16	test_extra	id-1354_AU10Open-33_AU17-66_AU6-66_AU7-100	emotion	Walging	0.5913730366655198	1.0862524458002554
id-1264_AU13-100_AU16Open-100_AU20-66_AU26-33_AU7-66	1	1	1	3	17	test_extra	id-1264_AU13-100_AU16Open-100_AU20-66_AU26-33_AU7-66	emotion	Verdrietig	0.5769893509217493	2.428189320162801
id-1344_AU20-100_AU22-66_AU7-66	1	1	1	3	18	train	id-1344_AU20-100_AU22-66_AU7-66	emotion	Verdrietig	0.2503283917674847	1.7029970218741255
id-1291_AU14-33_AU7-33	1	1	1	3	19	test_extra	id-1291_AU14-33_AU7-33	emotion	Walging	0.35982225896174697	0.602854605529501
id-1306_AU16Open-66_AU2-33_AU5-33_AU6-100	1	1	1	3	20	test_extra	id-1306_AU16Open-66_AU2-33_AU5-33_AU6-100	emotion	Boos	0.3331345014168344	2.4698018788812988
id-1376_AU12-33_AU17-100_AU22-100_AU26-100	1	1	1	3	21	train	id-1376_AU12-33_AU17-100_AU22-100_AU26-100	emotion	Blij	0.6077374970202326	1.2363498551990233
id-1309_AU12-33_AU15-66_AU43-100_AU5-66	1	1	1	3	22	test_extra	id-1309_AU12-33_AU15-66_AU43-100_AU5-66	emotion	Verdrietig	0.20187258126195426	6.56204921363087
id-1354_AU1-66_AU10Open-100	1	1	1	3	23	test	id-1354_AU1-66_AU10Open-100	emotion	Walging	0.3543722341292414	0.9611421923668786
id-1274_AU2-33_AU20-100_AU25-66_AU6-66	1	1	1	3	24	test_extra	id-1274_AU2-33_AU20-100_AU25-66_AU6-66	emotion	Boos	0.7037963549358794	0.8612394508368197
id-1307_AU1-100_AU13-100	1	1	1	3	25	train	id-1307_AU1-100_AU13-100	emotion	Verrassing	0.3485330464619169	0.8528979220736801
id-1291_AU1-100_AU16Open-100_AU6-33	1	1	1	3	26	test_extra	id-1291_AU1-100_AU16Open-100_AU6-33	emotion	Verrassing	0.34545112491404123	0.9780320222457703
id-1380_AU1-100_AU15-66_AU7-66	1	1	1	3	27	train	id-1380_AU1-100_AU15-66_AU7-66	emotion	Walging	0.30868571004402257	0.8779650702631443
id-1285_AU16Open-33_AU5-33	1	1	1	3	28	test	id-1285_AU16Open-33_AU5-33	emotion	Bang	0.5056354396311126	0.9195317466496816
id-1354_AU20-100_AU43-66_AU9-33	1	1	1	3	29	test_extra	id-1354_AU20-100_AU43-66_AU9-33	emotion	Walging	0.5307249025199864	0.6611885576708119
id-1380_AU12-33_AU13-33_AU22-33_AU9-33	1	1	1	3	30	train	id-1380_AU12-33_AU13-33_AU22-33_AU9-33	emotion	Blij	0.4354086532822901	1.0947925967648189
id-1274_AU26-100_AU9-33	1	1	1	3	31	test_extra	id-1274_AU26-100_AU9-33	emotion	Boos	0.6107169820575339	1.0112855444695017
id-1367_AU17-66_AU9-100	1	1	1	3	32	test_extra	id-1367_AU17-66_AU9-100	emotion	Boos	0.6208331092540109	0.8612294895410741
id-1342_AU14-100_AU25-66	1	1	1	3	33	train	id-1342_AU14-100_AU25-66	emotion	Blij	0.3299064295820657	0.7445579629693384
id-1270_AU12-100_AU13-100_AU14-66_AU2-100_AU25-66	1	1	1	3	34	test_extra	id-1270_AU12-100_AU13-100_AU14-66_AU2-100_AU25-66	emotion	Blij	0.5771515235336879	1.0863300231644644
id-1280_AU7-66	1	1	1	3	35	test_extra	id-1280_AU7-66	emotion	Verrassing	0.1498135071115797	2.0028763996378984
id-1273_AU13-33_AU4-100_AU9-100	1	1	1	3	36	train	id-1273_AU13-33_AU4-100_AU9-100	emotion	Verdrietig	0.21949242939574826	0.9696506482991936
id-1285_AU11-66_AU4-33	1	1	1	4	1	test_extra	id-1285_AU11-66_AU4-33	valence	-0.1440246859270778		5.3024361103616675
id-1285_AU11-66_AU4-33	1	1	1	4	1	test_extra	id-1285_AU11-66_AU4-33	arousal	-0.4646834206326473		5.3024361103616675
id-1363_AU2-66_AU24-100_AU26-33	1	1	1	4	2	test_extra	id-1363_AU2-66_AU24-100_AU26-33	valence	-0.20380851782133647		1.0604140518266831
id-1363_AU2-66_AU24-100_AU26-33	1	1	1	4	2	test_extra	id-1363_AU2-66_AU24-100_AU26-33	arousal	0.4538136330155093		1.0604140518266831
id-1377_AU10Open-66_AU16Open-66_AU26-100	1	1	1	4	3	test_extra	id-1377_AU10Open-66_AU16Open-66_AU26-100	valence	-0.2554400090027418		1.360301881597934
id-1377_AU10Open-66_AU16Open-66_AU26-100	1	1	1	4	3	test_extra	id-1377_AU10Open-66_AU16Open-66_AU26-100	arousal	0.418486823259811		1.360301881597934
id-1358_AU11-100_AU12-100_AU14-100_AU16Open-66_AU6-100	1	1	1	4	4	test	id-1358_AU11-100_AU12-100_AU14-100_AU16Open-66_AU6-100	valence	0.3722902258869748		0.8353059717665019
id-1358_AU11-100_AU12-100_AU14-100_AU16Open-66_AU6-100	1	1	1	4	4	test	id-1358_AU11-100_AU12-100_AU14-100_AU16Open-66_AU6-100	arousal	0.29620171256700906		0.8353059717665019
id-1293_AU10Open-100_AU11-33_AU14-33_AU22-33_AU27i-33	1	1	1	4	5	train	id-1293_AU10Open-100_AU11-33_AU14-33_AU22-33_AU27i-33	valence	-0.0027174469042844872		1.227037552877846
id-1293_AU10Open-100_AU11-33_AU14-33_AU22-33_AU27i-33	1	1	1	4	5	train	id-1293_AU10Open-100_AU11-33_AU14-33_AU22-33_AU27i-33	arousal	0.2771795842370177		1.227037552877846
id-1264_AU10Open-33_AU25-66_AU4-66	1	1	1	4	6	test	id-1264_AU10Open-33_AU25-66_AU4-66	valence	0.2907668187584401		0.9271038407737252
id-1264_AU10Open-33_AU25-66_AU4-66	1	1	1	4	6	test	id-1264_AU10Open-33_AU25-66_AU4-66	arousal	-0.201091070917052		0.9271038407737252
id-1273_AU11-100_AU15-33_AU20-33	1	1	1	4	7	train	id-1273_AU11-100_AU15-33_AU20-33	valence	-0.010869787617137949		1.4939051962346641
id-1273_AU11-100_AU15-33_AU20-33	1	1	1	4	7	train	id-1273_AU11-100_AU15-33_AU20-33	arousal	-0.6087081065597252		1.4939051962346641
id-1280_AU20-100_AU27i-66_AU9-33	1	1	1	4	8	test_extra	id-1280_AU20-100_AU27i-66_AU9-33	valence	-0.3722902258869748		1.0852167728903623
id-1280_AU20-100_AU27i-66_AU9-33	1	1	1	4	8	test_extra	id-1280_AU20-100_AU27i-66_AU9-33	arousal	0.03804425665998282		1.0852167728903623
id-1339_AU22-33_AU25-100_AU27i-100_AU4-66	1	1	1	4	9	test_extra	id-1339_AU22-33_AU25-100_AU27i-100_AU4-66	valence	0.4674008675369317		0.6518729349177192
id-1339_AU22-33_AU25-100_AU27i-100_AU4-66	1	1	1	4	9	test_extra	id-1339_AU22-33_AU25-100_AU27i-100_AU4-66	arousal	0.1521770266399313		0.6518729349177192
id-1291_AU20-33_AU24-100_AU25-33_AU27i-100	1	1	1	4	10	test	id-1291_AU20-33_AU24-100_AU25-33_AU27i-100	valence	-0.06521872570282768		3.7939333897202228
id-1291_AU20-33_AU24-100_AU25-33_AU27i-100	1	1	1	4	10	test	id-1291_AU20-33_AU24-100_AU25-33_AU27i-100	arousal	-0.3641378851741212		3.7939333897202228
id-1307_AU1-66_AU10Open-100_AU6-33	1	1	1	4	11	test_extra	id-1307_AU1-66_AU10Open-100_AU6-33	valence	-0.2418527744813193		1.99380407398894
id-1307_AU1-66_AU10Open-100_AU6-33	1	1	1	4	11	test_extra	id-1307_AU1-66_AU10Open-100_AU6-33	arousal	-0.07065361951139666		1.99380407398894
id-1361_AU1-100_AU17-66_AU27i-33_AU5-66	1	1	1	4	12	train	id-1361_AU1-100_AU17-66_AU27i-33_AU5-66	valence	0.100545535458526		1.5437276738680341
id-1361_AU1-100_AU17-66_AU27i-33_AU5-66	1	1	1	4	12	train	id-1361_AU1-100_AU17-66_AU27i-33_AU5-66	arousal	-0.201091070917052		1.5437276738680341
id-1363_AU1-100_AU25-66_AU5-66	1	1	1	4	13	test_extra	id-1363_AU1-100_AU25-66_AU5-66	valence	0.01630468142570692		1.2936740941709104
id-1363_AU1-100_AU25-66_AU5-66	1	1	1	4	13	test_extra	id-1363_AU1-100_AU25-66_AU5-66	arousal	-0.5570766153783199		1.2936740941709104
id-1295_AU12-33_AU2-66_AU27i-66	1	1	1	4	14	test_extra	id-1295_AU12-33_AU2-66_AU27i-66	valence	0.2663097966198797		1.1103569705828704
id-1295_AU12-33_AU2-66_AU27i-66	1	1	1	4	14	test_extra	id-1295_AU12-33_AU2-66_AU27i-66	arousal	-0.05434893808568974		1.1103569705828704
id-1356_AU22-100	1	1	1	4	15	train	id-1356_AU22-100	valence	-0.013587234521422437		0.9437041893588684
id-1356_AU22-100	1	1	1	4	15	train	id-1356_AU22-100	arousal	-0.9239319474567256		0.9437041893588684
id-1360_AU1-66_AU14-66_AU15-66	1	1	1	4	16	test_extra	id-1360_AU1-66_AU14-66_AU15-66	valence	0.0		1.0353876543927072
id-1360_AU1-66_AU14-66_AU15-66	1	1	1	4	16	test_extra	id-1360_AU1-66_AU14-66_AU15-66	arousal	-0.5217498056226214		1.0353876543927072
id-1266_AU20-100_AU22-100_AU24-100_AU25-66_AU6-66	1	1	1	4	17	test_extra	id-1266_AU20-100_AU22-100_AU24-100_AU25-66_AU6-66	valence	-0.105980429267095		1.0269531535350325
id-1266_AU20-100_AU22-100_AU24-100_AU25-66_AU6-66	1	1	1	4	17	test_extra	id-1266_AU20-100_AU22-100_AU24-100_AU25-66_AU6-66	arousal	-0.30707150018414703		1.0269531535350325
id-1323_AU10Open-33_AU11-33	1	1	1	4	18	train	id-1323_AU10Open-33_AU11-33	valence	0.08695830093710358		1.3021354603420148
id-1323_AU10Open-33_AU11-33	1	1	1	4	18	train	id-1323_AU10Open-33_AU11-33	arousal	-0.2880493718541556		1.3021354603420148
id-1356_AU11-100_AU12-33_AU25-66	1	1	1	4	19	test_extra	id-1356_AU11-100_AU12-33_AU25-66	valence	0.09239319474567256		1.4104044829450686
id-1356_AU11-100_AU12-33_AU25-66	1	1	1	4	19	test_extra	id-1356_AU11-100_AU12-33_AU25-66	arousal	0.07608851331996565		1.4104044829450686
id-1260_AU12-66_AU20-100_AU22-66_AU43-66	1	1	1	4	20	test_extra	id-1260_AU12-66_AU20-100_AU22-66_AU43-66	valence	0.08967574784138807		2.8104951005516345
id-1260_AU12-66_AU20-100_AU22-66_AU43-66	1	1	1	4	20	test_extra	id-1260_AU12-66_AU20-100_AU22-66_AU43-66	arousal	-0.105980429267095		2.8104951005516345
id-1354_AU12-33_AU13-33	1	1	1	4	21	test_extra	id-1354_AU12-33_AU13-33	valence	0.04347915046855179		1.6687334846242263
id-1354_AU12-33_AU13-33	1	1	1	4	21	test_extra	id-1354_AU12-33_AU13-33	arousal	-0.3559855444612677		1.6687334846242263
id-1280_AU11-33_AU17-66_AU2-66_AU26-66_AU9-66	1	1	1	4	22	test	id-1280_AU11-33_AU17-66_AU2-66_AU26-66_AU9-66	valence	-0.1440246859270778		0.4105391113675978
id-1280_AU11-33_AU17-66_AU2-66_AU26-66_AU9-66	1	1	1	4	22	test	id-1280_AU11-33_AU17-66_AU2-66_AU26-66_AU9-66	arousal	0.01630468142570692		0.4105391113675978
id-1378_AU11-66_AU27i-33_AU4-100	1	1	1	4	23	test_extra	id-1378_AU11-66_AU27i-33_AU4-100	valence	-0.11685021688423293		1.5270029600142152
id-1378_AU11-66_AU27i-33_AU4-100	1	1	1	4	23	test_extra	id-1378_AU11-66_AU27i-33_AU4-100	arousal	0.3478332037484143		1.5270029600142152
id-1380_AU22-66_AU7-33	1	1	1	4	24	test_extra	id-1380_AU22-66_AU7-33	valence	-0.03804425665998282		1.2020017978629771
id-1380_AU22-66_AU7-33	1	1	1	4	24	test_extra	id-1380_AU22-66_AU7-33	arousal	-0.6956664074968286		1.2020017978629771
id-1274_AU2-66_AU5-33_AU6-66	1	1	1	4	25	test_extra	id-1274_AU2-66_AU5-33_AU6-66	valence	-0.07065361951139666		0.6853688486735336
id-1274_AU2-66_AU5-33_AU6-66	1	1	1	4	25	test_extra	id-1274_AU2-66_AU5-33_AU6-66	arousal	-0.13587234521422434		0.6853688486735336
id-1362_AU11-33_AU13-66_AU17-33_AU2-100_AU22-33	1	1	1	4	26	test_extra	id-1362_AU11-33_AU13-66_AU17-33_AU2-100_AU22-33	valence	0.09782808855424154		3.702271054708035
id-1362_AU11-33_AU13-66_AU17-33_AU2-100_AU22-33	1	1	1	4	26	test_extra	id-1362_AU11-33_AU13-66_AU17-33_AU2-100_AU22-33	arousal	0.19293873020419855		3.702271054708035
id-1363_AU25-33_AU27i-66	1	1	1	4	27	train	id-1363_AU25-33_AU27i-66	valence	-0.1657642611613537		2.360442547169441
id-1363_AU25-33_AU27i-66	1	1	1	4	27	train	id-1363_AU25-33_AU27i-66	arousal	0.08695830093710358		2.360442547169441
id-1361_AU10Open-33_AU11-100_AU13-66_AU2-100	1	1	1	4	28	train	id-1361_AU10Open-33_AU11-100_AU13-66_AU2-100	valence	0.100545535458526		0.8602961463066094
id-1361_AU10Open-33_AU11-100_AU13-66_AU2-100	1	1	1	4	28	train	id-1361_AU10Open-33_AU11-100_AU13-66_AU2-100	arousal	0.09239319474567256		0.8602961463066094
id-1373_AU1-66_AU24-33_AU26-66_AU7-33	1	1	1	4	29	train	id-1373_AU1-66_AU24-33_AU26-66_AU7-33	valence	-0.07065361951139666		1.11874106124651
id-1373_AU1-66_AU24-33_AU26-66_AU7-33	1	1	1	4	29	train	id-1373_AU1-66_AU24-33_AU26-66_AU7-33	arousal	-0.5625115091868887		1.11874106124651
id-1355_AU12-100_AU26-33_AU5-66	1	1	1	4	30	test_extra	id-1355_AU12-100_AU26-33_AU5-66	valence	-0.2663097966198797		0.8436683286936386
id-1355_AU12-100_AU26-33_AU5-66	1	1	1	4	30	test_extra	id-1355_AU12-100_AU26-33_AU5-66	arousal	-0.3641378851741212		0.8436683286936386
id-1356_AU10Open-66_AU22-100_AU4-100_AU7-33	1	1	1	4	31	test_extra	id-1356_AU10Open-66_AU22-100_AU4-100_AU7-33	valence	-0.3423983099398454		4.5775661958291485
id-1356_AU10Open-66_AU22-100_AU4-100_AU7-33	1	1	1	4	31	test_extra	id-1356_AU10Open-66_AU22-100_AU4-100_AU7-33	arousal	-0.5924034251340181		4.5775661958291485
id-1291_AU14-100_AU15-66	1	1	1	4	32	test_extra	id-1291_AU14-100_AU15-66	valence	-0.0625012787985432		0.7269952928349994
id-1291_AU14-100_AU15-66	1	1	1	4	32	test_extra	id-1291_AU14-100_AU15-66	arousal	-0.5570766153783199		0.7269952928349994
id-1293_AU22-66_AU25-100_AU5-33_AU9-33	1	1	1	4	33	test	id-1293_AU22-66_AU25-100_AU5-33_AU9-33	valence	-0.4755532082497852		1.3937691188962162
id-1293_AU22-66_AU25-100_AU5-33_AU9-33	1	1	1	4	33	test	id-1293_AU22-66_AU25-100_AU5-33_AU9-33	arousal	-0.30707150018414703		1.3937691188962162
id-1273_AU1-33_AU13-33_AU26-33	1	1	1	4	34	test	id-1273_AU1-33_AU13-33_AU26-33	valence	0.4429438453983714		2.6272854382154947
id-1273_AU1-33_AU13-33_AU26-33	1	1	1	4	34	test	id-1273_AU1-33_AU13-33_AU26-33	arousal	-0.40761703564267293		2.6272854382154947
id-1260_AU10Open-100_AU5-66	1	1	1	4	35	train	id-1260_AU10Open-100_AU5-66	valence	-0.010869787617137949		3.344028746488675
id-1260_AU10Open-100_AU5-66	1	1	1	4	35	train	id-1260_AU10Open-100_AU5-66	arousal	-0.6766442791668373		3.344028746488675
id-1380_AU10Open-33_AU13-33_AU16Open-100_AU22-33_AU43-66	1	1	1	4	36	test	id-1380_AU10Open-33_AU13-33_AU16Open-100_AU22-33_AU43-66	valence	-0.02173957523427589		0.9685364924525856
id-1380_AU10Open-33_AU13-33_AU16Open-100_AU22-33_AU43-66	1	1	1	4	36	test	id-1380_AU10Open-33_AU13-33_AU16Open-100_AU22-33_AU43-66	arousal	-0.3641378851741212		0.9685364924525856
id-1335_AU24-100_AU25-100_AU27i-66	1	1	2	5	1	train	id-1335_AU24-100_AU25-100_AU27i-66	valence	0.10598042926709499		2.03550507694035
id-1335_AU24-100_AU25-100_AU27i-66	1	1	2	5	1	train	id-1335_AU24-100_AU25-100_AU27i-66	arousal	0.135872345214224		2.03550507694035
id-1311_AU16Open-100_AU43-100_AU6-66_AU9-100	1	1	2	5	2	test	id-1311_AU16Open-100_AU43-100_AU6-66_AU9-100	valence	-0.366855332078406		1.41054001694056
id-1311_AU16Open-100_AU43-100_AU6-66_AU9-100	1	1	2	5	2	test	id-1311_AU16Open-100_AU43-100_AU6-66_AU9-100	arousal	0.165764261161354		1.41054001694056
id-1361_AU7-66	1	1	2	5	3	test_extra	id-1361_AU7-66	valence	-0.39946469492982		1.4937437024991598
id-1361_AU7-66	1	1	2	5	3	test_extra	id-1361_AU7-66	arousal	-0.61142555346401		1.4937437024991598
id-1289_AU1-100_AU12-100_AU13-100_AU17-33	1	1	2	5	4	test_extra	id-1289_AU1-100_AU12-100_AU13-100_AU17-33	valence	0.309788947088431		0.560250143231315
id-1289_AU1-100_AU12-100_AU13-100_AU17-33	1	1	2	5	4	test_extra	id-1289_AU1-100_AU12-100_AU13-100_AU17-33	arousal	0.152177026639931		0.560250143231315
id-1361_AU13-33_AU5-66_AU6-66	1	1	2	5	5	test_extra	id-1361_AU13-33_AU5-66_AU6-66	valence	-0.046196597372836		1.8437935995352701
id-1361_AU13-33_AU5-66_AU6-66	1	1	2	5	5	test_extra	id-1361_AU13-33_AU5-66_AU6-66	arousal	-0.603273212751156		1.8437935995352701
id-1307_AU17-66_AU2-100_AU7-66	1	1	2	5	6	test_extra	id-1307_AU17-66_AU2-100_AU7-66	valence	-0.47283576134550104		0.8853654074982842
id-1307_AU17-66_AU2-100_AU7-66	1	1	2	5	6	test_extra	id-1307_AU17-66_AU2-100_AU7-66	arousal	-0.673926832262553		0.8853654074982842
id-1358_AU14-100	1	1	2	5	7	train	id-1358_AU14-100	valence	0.35598554446126796		2.32726780974008
id-1358_AU14-100	1	1	2	5	7	train	id-1358_AU14-100	arousal	-0.260874902811311		2.32726780974008
id-1366_AU14-33_AU2-100_AU26-100_AU27i-100	1	1	2	5	8	test	id-1366_AU14-33_AU2-100_AU26-100_AU27i-100	valence	-0.097828088554242		1.76043717410721
id-1366_AU14-33_AU2-100_AU26-100_AU27i-100	1	1	2	5	8	test	id-1366_AU14-33_AU2-100_AU26-100_AU27i-100	arousal	0.665774491549699		1.76043717410721
id-1279_AU17-66_AU20-33_AU24-100_AU27i-66	1	1	2	5	9	test_extra	id-1279_AU17-66_AU20-33_AU24-100_AU27i-66	valence	-0.33152852232270696		0.710170362307508
id-1279_AU17-66_AU20-33_AU24-100_AU27i-66	1	1	2	5	9	test_extra	id-1279_AU17-66_AU20-33_AU24-100_AU27i-66	arousal	0.116850216884233		0.710170362307508
id-1341_AU1-33_AU15-33_AU2-66_AU4-33	1	1	2	5	10	test	id-1341_AU1-33_AU15-33_AU2-66_AU4-33	valence	-0.30435405327986303		0.81855741117397
id-1341_AU1-33_AU15-33_AU2-66_AU4-33	1	1	2	5	10	test	id-1341_AU1-33_AU15-33_AU2-66_AU4-33	arousal	-0.657622150836846		0.81855741117397
id-1315_AU14-100_AU26-66	1	1	2	5	11	test_extra	id-1315_AU14-100_AU26-66	valence	0.0		2.04377627291797
id-1315_AU14-100_AU26-66	1	1	2	5	11	test_extra	id-1315_AU14-100_AU26-66	arousal	0.548924274665466		2.04377627291797
id-1266_AU15-33_AU5-66_AU9-33	1	1	2	5	12	train	id-1266_AU15-33_AU5-66_AU9-33	valence	0.038044256659983		2.2689021625669703
id-1266_AU15-33_AU5-66_AU9-33	1	1	2	5	12	train	id-1266_AU15-33_AU5-66_AU9-33	arousal	-0.494575336579777		2.2689021625669703
id-1358_AU1-66_AU13-100_AU24-33_AU26-33	1	1	2	5	13	train	id-1358_AU1-66_AU13-100_AU24-33_AU26-33	valence	0.073371066415681		2.4772797934815602
id-1358_AU1-66_AU13-100_AU24-33_AU26-33	1	1	2	5	13	train	id-1358_AU1-66_AU13-100_AU24-33_AU26-33	arousal	-0.073371066415681		2.4772797934815602
id-1356_AU12-33_AU43-33	1	1	2	5	14	test_extra	id-1356_AU12-33_AU43-33	valence	-0.23641788067275		3.91915744341259
id-1356_AU12-33_AU43-33	1	1	2	5	14	test_extra	id-1356_AU12-33_AU43-33	arousal	-0.07880596022425		3.91915744341259
id-1302_AU14-66_AU27i-33	1	1	2	5	15	test_extra	id-1302_AU14-66_AU27i-33	valence	-0.14130723902279302		3.21901961530102
id-1302_AU14-66_AU27i-33	1	1	2	5	15	test_extra	id-1302_AU14-66_AU27i-33	arousal	-0.317941287801285		3.21901961530102
id-1274_AU10Open-100_AU12-66_AU24-33_AU7-66	1	1	2	5	16	test_extra	id-1274_AU10Open-100_AU12-66_AU24-33_AU7-66	valence	0.07065361951139701		3.61898013234622
id-1274_AU10Open-100_AU12-66_AU24-33_AU7-66	1	1	2	5	16	test_extra	id-1274_AU10Open-100_AU12-66_AU24-33_AU7-66	arousal	-0.491857889675492		3.61898013234622
id-1367_AU16Open-100	1	1	2	5	17	test_extra	id-1367_AU16Open-100	valence	0.10326298236281001		1.7937598216867598
id-1367_AU16Open-100	1	1	2	5	17	test_extra	id-1367_AU16Open-100	arousal	-0.796211942955355		1.7937598216867598
id-1285_AU12-66_AU20-100	1	1	2	5	18	test_extra	id-1285_AU12-66_AU20-100	valence	0.35598554446126796		1.01035159752018
id-1285_AU12-66_AU20-100	1	1	2	5	18	test_extra	id-1285_AU12-66_AU20-100	arousal	-0.222830646151328		1.01035159752018
id-1264_AU13-100_AU15-33_AU22-33	1	1	2	5	19	test_extra	id-1264_AU13-100_AU15-33_AU22-33	valence	0.002717446904284		1.59359784497929
id-1264_AU13-100_AU15-33_AU22-33	1	1	2	5	19	test_extra	id-1264_AU13-100_AU15-33_AU22-33	arousal	-0.807081730572492		1.59359784497929
id-1361_AU11-100_AU12-33_AU13-33	1	1	2	5	20	test_extra	id-1361_AU11-100_AU12-33_AU13-33	valence	-0.13315489830994		0.794253358616516
id-1361_AU11-100_AU12-33_AU13-33	1	1	2	5	20	test_extra	id-1361_AU11-100_AU12-33_AU13-33	arousal	-0.5733812968040269		0.794253358616516
id-1290_AU10Open-33_AU14-66_AU24-66	1	1	2	5	21	test	id-1290_AU10Open-33_AU14-66_AU24-66	valence	-0.323376181609854		2.09396701664036
id-1290_AU10Open-33_AU14-66_AU24-66	1	1	2	5	21	test	id-1290_AU10Open-33_AU14-66_AU24-66	arousal	-0.10598042926709499		2.09396701664036
id-1315_AU14-66_AU22-33_AU24-66_AU6-100	1	1	2	5	22	test_extra	id-1315_AU14-66_AU22-33_AU24-66_AU6-100	valence	0.510880018005483		1.07697244222618
id-1315_AU14-66_AU22-33_AU24-66_AU6-100	1	1	2	5	22	test_extra	id-1315_AU14-66_AU22-33_AU24-66_AU6-100	arousal	-0.315223840897		1.07697244222618
id-1347_AU11-33_AU4-100	1	1	2	5	23	train	id-1347_AU11-33_AU4-100	valence	-0.453813633015509		0.843639048521254
id-1347_AU11-33_AU4-100	1	1	2	5	23	train	id-1347_AU11-33_AU4-100	arousal	-0.42120427016409495		0.843639048521254
id-1269_AU17-33	1	1	2	5	24	train	id-1269_AU17-33	valence	-0.002717446904284		1.03537316523489
id-1269_AU17-33	1	1	2	5	24	train	id-1269_AU17-33	arousal	-0.7174059827311049		1.03537316523489
id-1293_AU24-33_AU27i-33_AU4-33	1	1	2	5	25	test_extra	id-1293_AU24-33_AU27i-33_AU4-33	valence	-0.432074057781233		1.3937582520279599
id-1293_AU24-33_AU27i-33_AU4-33	1	1	2	5	25	test_extra	id-1293_AU24-33_AU27i-33_AU4-33	arousal	-0.638600022506854		1.3937582520279599
id-1323_AU10Open-100_AU2-33_AU20-66_AU4-66	1	1	2	5	26	train	id-1323_AU10Open-100_AU2-33_AU20-66_AU4-66	valence	-0.47555320824978503		1.43539435562798
id-1323_AU10Open-100_AU2-33_AU20-66_AU4-66	1	1	2	5	26	train	id-1323_AU10Open-100_AU2-33_AU20-66_AU4-66	arousal	-0.4347915046855179		1.43539435562798
id-1339_AU11-100_AU20-100_AU4-33	1	1	2	5	27	train	id-1339_AU11-100_AU20-100_AU4-33	valence	0.032609362851414		1.67721235852696
id-1339_AU11-100_AU20-100_AU4-33	1	1	2	5	27	train	id-1339_AU11-100_AU20-100_AU4-33	arousal	-0.6494698101239921		1.67721235852696
id-1363_AU7-66	1	1	2	5	28	test_extra	id-1363_AU7-66	valence	0.0		1.1354096296149698
id-1363_AU7-66	1	1	2	5	28	test_extra	id-1363_AU7-66	arousal	-0.815234071285346		1.1354096296149698
id-1260_AU12-66_AU25-33	1	1	2	5	29	test	id-1260_AU12-66_AU25-33	valence	-0.0054348938085690005		1.71031374459608
id-1260_AU12-66_AU25-33	1	1	2	5	29	test	id-1260_AU12-66_AU25-33	arousal	-0.7907770491467859		1.71031374459608
id-1270_AU13-100_AU17-100_AU25-100	1	1	2	5	30	test_extra	id-1270_AU13-100_AU17-100_AU25-100	valence	0.33968086303556105		0.7685613655066851
id-1270_AU13-100_AU17-100_AU25-100	1	1	2	5	30	test_extra	id-1270_AU13-100_AU17-100_AU25-100	arousal	-0.543489380856897		0.7685613655066851
id-1339_AU10Open-100_AU12-33_AU20-100_AU27i-33	1	1	2	5	31	test	id-1339_AU10Open-100_AU12-33_AU20-100_AU27i-33	valence	0.36957277898269		1.1771314607303798
id-1339_AU10Open-100_AU12-33_AU20-100_AU27i-33	1	1	2	5	31	test	id-1339_AU10Open-100_AU12-33_AU20-100_AU27i-33	arousal	0.29891915947129405		1.1771314607303798
id-1310_AU10Open-33_AU16Open-33_AU20-66_AU26-100	1	1	2	5	32	test_extra	id-1310_AU10Open-33_AU16Open-33_AU20-66_AU26-100	valence	-0.309788947088431		0.8437090794495821
id-1310_AU10Open-33_AU16Open-33_AU20-66_AU26-100	1	1	2	5	32	test_extra	id-1310_AU10Open-33_AU16Open-33_AU20-66_AU26-100	arousal	0.301636606375578		0.8437090794495821
id-1306_AU15-66_AU26-66_AU5-66	1	1	2	5	33	test_extra	id-1306_AU15-66_AU26-66_AU5-66	valence	-0.29891915947129405		2.7022013256369104
id-1306_AU15-66_AU26-66_AU5-66	1	1	2	5	33	test_extra	id-1306_AU15-66_AU26-66_AU5-66	arousal	-0.13315489830994		2.7022013256369104
id-1310_AU12-33_AU14-33_AU22-100_AU6-100	1	1	2	5	34	test	id-1310_AU12-33_AU14-33_AU22-100_AU6-100	valence	-0.008152340712853002		5.55265148565195
id-1310_AU12-33_AU14-33_AU22-100_AU6-100	1	1	2	5	34	test	id-1310_AU12-33_AU14-33_AU22-100_AU6-100	arousal	0.002717446904284		5.55265148565195
id-1310_AU14-100_AU15-66_AU2-66_AU24-100_AU43-66	1	1	2	5	35	test_extra	id-1310_AU14-100_AU15-66_AU2-66_AU24-100_AU43-66	valence	-0.013587234521423		0.768548989351075
id-1310_AU14-100_AU15-66_AU2-66_AU24-100_AU43-66	1	1	2	5	35	test_extra	id-1310_AU14-100_AU15-66_AU2-66_AU24-100_AU43-66	arousal	-0.491857889675492		0.768548989351075
id-1274_AU11-66_AU12-66_AU24-66_AU27i-100_AU7-100	1	1	2	5	36	test_extra	id-1274_AU11-66_AU12-66_AU24-66_AU27i-100_AU7-100	valence	-0.08695830093710401		3.08567921850317
id-1274_AU11-66_AU12-66_AU24-66_AU27i-100_AU7-100	1	1	2	5	36	test_extra	id-1274_AU11-66_AU12-66_AU24-66_AU27i-100_AU7-100	arousal	0.36142043826983705		3.08567921850317
id-1273_AU11-33_AU14-33_AU26-100	1	1	2	6	1	test_extra	id-1273_AU11-33_AU14-33_AU26-100	valence	0.7092536420182509		1.14371191690952
id-1273_AU11-33_AU14-33_AU26-100	1	1	2	6	1	test_extra	id-1273_AU11-33_AU14-33_AU26-100	arousal	-0.36413788517412105		1.14371191690952
id-1309_AU15-33	1	1	2	6	2	test	id-1309_AU15-33	valence	0.179351495682776		0.9187964219022428
id-1309_AU15-33	1	1	2	6	2	test	id-1309_AU15-33	arousal	-0.8179515181896301		0.9187964219022428
id-1302_AU12-66_AU43-33	1	1	2	6	3	test_extra	id-1302_AU12-66_AU43-33	valence	0.250005115194173		1.09383480307724
id-1302_AU12-66_AU43-33	1	1	2	6	3	test_extra	id-1302_AU12-66_AU43-33	arousal	-0.402182141834104		1.09383480307724
id-1358_AU2-66_AU22-33_AU7-66	1	1	2	6	4	train	id-1358_AU2-66_AU22-33_AU7-66	valence	-0.13315489830994		0.6771163678581619
id-1358_AU2-66_AU22-33_AU7-66	1	1	2	6	4	train	id-1358_AU2-66_AU22-33_AU7-66	arousal	-0.7907770491467859		0.6771163678581619
id-1367_AU1-100_AU22-33_AU26-100	1	1	2	6	5	test_extra	id-1367_AU1-100_AU22-33_AU26-100	valence	-0.119567663788517		1.8355350815709202
id-1367_AU1-100_AU22-33_AU26-100	1	1	2	6	5	test_extra	id-1367_AU1-100_AU22-33_AU26-100	arousal	0.46468342063264706		1.8355350815709202
id-1293_AU6-33_AU7-66	1	1	2	6	6	test_extra	id-1293_AU6-33_AU7-66	valence	-0.10598042926709499		0.576898487151084
id-1293_AU6-33_AU7-66	1	1	2	6	6	test_extra	id-1293_AU6-33_AU7-66	arousal	-0.39674724802553496		0.576898487151084
id-1344_AU16Open-33	1	1	2	6	7	test_extra	id-1344_AU16Open-33	valence	-0.010869787617138001		1.05186605256768
id-1344_AU16Open-33	1	1	2	6	7	test_extra	id-1344_AU16Open-33	arousal	-0.8668655624667511		1.05186605256768
id-1285_AU26-100_AU4-66_AU7-100_AU9-33	1	1	2	6	8	test_extra	id-1285_AU26-100_AU4-66_AU7-100_AU9-33	valence	-0.5407719339526129		1.1603602608288401
id-1285_AU26-100_AU4-66_AU7-100_AU9-33	1	1	2	6	8	test_extra	id-1285_AU26-100_AU4-66_AU7-100_AU9-33	arousal	-0.13315489830994		1.1603602608288401
id-1302_AU1-33_AU14-100_AU27i-100_AU9-100	1	1	2	6	9	train	id-1302_AU1-33_AU14-100_AU27i-100_AU9-100	valence	-0.38044256659982795		0.835088332545638
id-1302_AU1-33_AU14-100_AU27i-100_AU9-100	1	1	2	6	9	train	id-1302_AU1-33_AU14-100_AU27i-100_AU9-100	arousal	0.7717549208167941		0.835088332545638
id-1356_AU13-100_AU25-33_AU26-100	1	1	2	6	10	test_extra	id-1356_AU13-100_AU25-33_AU26-100	valence	-0.0054348938085690005		0.9520324363938928
id-1356_AU13-100_AU25-33_AU26-100	1	1	2	6	10	test_extra	id-1356_AU13-100_AU25-33_AU26-100	arousal	0.5407719339526129		0.9520324363938928
id-1347_AU4-33_AU43-66_AU9-66	1	1	2	6	11	train	id-1347_AU4-33_AU43-66_AU9-66	valence	0.010869787617138001		4.204064993531119
id-1347_AU4-33_AU43-66_AU9-66	1	1	2	6	11	train	id-1347_AU4-33_AU43-66_AU9-66	arousal	-0.225548093055612		4.204064993531119
id-1273_AU15-66_AU20-66_AU5-66	1	1	2	6	12	train	id-1273_AU15-66_AU20-66_AU5-66	valence	0.021739575234276002		1.0604391059951
id-1273_AU15-66_AU20-66_AU5-66	1	1	2	6	12	train	id-1273_AU15-66_AU20-66_AU5-66	arousal	-0.323376181609854		1.0604391059951
id-1266_AU25-33_AU4-33	1	1	2	6	13	test_extra	id-1266_AU25-33_AU4-33	valence	-0.179351495682776		0.718545699105107
id-1266_AU25-33_AU4-33	1	1	2	6	13	test_extra	id-1266_AU25-33_AU4-33	arousal	-0.7527327924868029		0.718545699105107
id-1285_AU27i-100_AU4-33_AU6-100	1	1	2	6	14	train	id-1285_AU27i-100_AU4-33_AU6-100	valence	-0.135872345214224		0.6436355469745649
id-1285_AU27i-100_AU4-33_AU6-100	1	1	2	6	14	train	id-1285_AU27i-100_AU4-33_AU6-100	arousal	0.48370554896263895		0.6436355469745649
id-1264_AU15-66_AU24-33_AU4-100	1	1	2	6	15	train	id-1264_AU15-66_AU24-33_AU4-100	valence	0.08424085403281899		5.3863352754838205
id-1264_AU15-66_AU24-33_AU4-100	1	1	2	6	15	train	id-1264_AU15-66_AU24-33_AU4-100	arousal	-0.10869787617138		5.3863352754838205
id-1363_AU13-100_AU20-66_AU22-66_AU5-66	1	1	2	6	16	test_extra	id-1363_AU13-100_AU20-66_AU22-66_AU5-66	valence	-0.021739575234276002		2.02721486394375
id-1363_AU13-100_AU20-66_AU22-66_AU5-66	1	1	2	6	16	test_extra	id-1363_AU13-100_AU20-66_AU22-66_AU5-66	arousal	-0.125002557597086		2.02721486394375
id-1296_AU12-100_AU9-33	1	1	2	6	17	train	id-1296_AU12-100_AU9-33	valence	-0.10869787617138		0.6687346920539311
id-1296_AU12-100_AU9-33	1	1	2	6	17	train	id-1296_AU12-100_AU9-33	arousal	-0.342398309939845		0.6687346920539311
id-1311_AU27i-100_AU4-66	1	1	2	6	18	train	id-1311_AU27i-100_AU4-66	valence	-0.092393194745673		0.668645342248965
id-1311_AU27i-100_AU4-66	1	1	2	6	18	train	id-1311_AU27i-100_AU4-66	arousal	0.07065361951139701		0.668645342248965
id-1360_AU10Open-66_AU20-33	1	1	2	6	19	train	id-1360_AU10Open-66_AU20-33	valence	-0.008152340712853002		1.14364430084061
id-1360_AU10Open-66_AU20-33	1	1	2	6	19	train	id-1360_AU10Open-66_AU20-33	arousal	-0.7989293898596391		1.14364430084061
id-1295_AU1-33_AU14-33_AU6-66	1	1	2	6	20	test_extra	id-1295_AU1-33_AU14-33_AU6-66	valence	0.062501278798543		0.885399517390397
id-1295_AU1-33_AU14-33_AU6-66	1	1	2	6	20	test_extra	id-1295_AU1-33_AU14-33_AU6-66	arousal	-0.7907770491467859		0.885399517390397
id-1294_AU11-66_AU20-33_AU25-33	1	1	2	6	21	test	id-1294_AU11-66_AU20-33_AU25-33	valence	0.029891915947129		1.3770757982169899
id-1294_AU11-66_AU20-33_AU25-33	1	1	2	6	21	test	id-1294_AU11-66_AU20-33_AU25-33	arousal	-0.8125166243810609		1.3770757982169899
id-1378_AU15-100_AU16Open-66_AU26-66_AU7-100	1	1	2	6	22	test_extra	id-1378_AU15-100_AU16Open-66_AU26-66_AU7-100	valence	-0.046196597372836		6.470676359913338
id-1378_AU15-100_AU16Open-66_AU26-66_AU7-100	1	1	2	6	22	test_extra	id-1378_AU15-100_AU16Open-66_AU26-66_AU7-100	arousal	0.089675747841388		6.470676359913338
id-1344_AU13-66_AU14-66_AU24-33_AU9-33	1	1	2	6	23	test	id-1344_AU13-66_AU14-66_AU24-33_AU9-33	valence	-0.500010230388346		0.993565606603624
id-1344_AU13-66_AU14-66_AU24-33_AU9-33	1	1	2	6	23	test	id-1344_AU13-66_AU14-66_AU24-33_AU9-33	arousal	-0.10598042926709499		0.993565606603624
id-1380_AU2-33_AU25-100_AU7-33	1	1	2	6	24	test_extra	id-1380_AU2-33_AU25-100_AU7-33	valence	-0.048914044277121		1.5353586760770699
id-1380_AU2-33_AU25-100_AU7-33	1	1	2	6	24	test_extra	id-1380_AU2-33_AU25-100_AU7-33	arousal	-0.8206689650939151		1.5353586760770699
id-1294_AU10Open-66_AU27i-66_AU43-33_AU7-66	1	1	2	6	25	test_extra	id-1294_AU10Open-66_AU27i-66_AU43-33_AU7-66	valence	0.135872345214224		2.76905339314953
id-1294_AU10Open-66_AU27i-66_AU43-33_AU7-66	1	1	2	6	25	test_extra	id-1294_AU10Open-66_AU27i-66_AU43-33_AU7-66	arousal	-0.595120872038303		2.76905339314953
id-1306_AU11-33_AU16Open-66	1	1	2	6	26	test_extra	id-1306_AU11-33_AU16Open-66	valence	-0.09511064164995699		1.11882799619161
id-1306_AU11-33_AU16Open-66	1	1	2	6	26	test_extra	id-1306_AU11-33_AU16Open-66	arousal	-0.73914555796538		1.11882799619161
id-1315_AU12-66_AU17-33_AU2-100_AU4-100	1	1	2	6	27	test	id-1315_AU12-66_AU17-33_AU2-100_AU4-100	valence	0.16848170806563798		1.8854333254244
id-1315_AU12-66_AU17-33_AU2-100_AU4-100	1	1	2	6	27	test	id-1315_AU12-66_AU17-33_AU2-100_AU4-100	arousal	0.6005557658468721		1.8854333254244
id-1280_AU1-66_AU17-100_AU26-33	1	1	2	6	28	test_extra	id-1280_AU1-66_AU17-100_AU26-33	valence	-0.19293873020419897		1.19374841147555
id-1280_AU1-66_AU17-100_AU26-33	1	1	2	6	28	test_extra	id-1280_AU1-66_AU17-100_AU26-33	arousal	0.4972927834840611		1.19374841147555
id-1296_AU1-66_AU17-100_AU27i-33_AU4-66_AU5-100	1	1	2	6	29	test	id-1296_AU1-66_AU17-100_AU27i-33_AU4-66_AU5-100	valence	-0.358702991365552		1.7771528322377899
id-1296_AU1-66_AU17-100_AU27i-33_AU4-66_AU5-100	1	1	2	6	29	test	id-1296_AU1-66_AU17-100_AU27i-33_AU4-66_AU5-100	arousal	0.127720004501371		1.7771528322377899
id-1377_AU14-33_AU5-100_AU6-66	1	1	2	6	30	test_extra	id-1377_AU14-33_AU5-100_AU6-66	valence	0.114132769979948		0.9353249284145021
id-1377_AU14-33_AU5-100_AU6-66	1	1	2	6	30	test_extra	id-1377_AU14-33_AU5-100_AU6-66	arousal	-0.323376181609854		0.9353249284145021
id-1366_AU11-66_AU14-66_AU9-33	1	1	2	6	31	test_extra	id-1366_AU11-66_AU14-66_AU9-33	valence	0.08424085403281899		3.6773180086342996
id-1366_AU11-66_AU14-66_AU9-33	1	1	2	6	31	test_extra	id-1366_AU11-66_AU14-66_AU9-33	arousal	-0.5299021463354749		3.6773180086342996
id-1361_AU12-33_AU15-33_AU16Open-100_AU6-66	1	1	2	6	32	test	id-1361_AU12-33_AU15-33_AU16Open-100_AU6-66	valence	0.043479150468552004		4.56929258499258
id-1361_AU12-33_AU15-33_AU16Open-100_AU6-66	1	1	2	6	32	test	id-1361_AU12-33_AU15-33_AU16Open-100_AU6-66	arousal	-0.35055065065269897		4.56929258499258
id-1297_AU10Open-100_AU6-100	1	1	2	6	33	train	id-1297_AU10Open-100_AU6-100	valence	0.08695830093710401		4.67758847290907
id-1297_AU10Open-100_AU6-100	1	1	2	6	33	train	id-1297_AU10Open-100_AU6-100	arousal	0.19565617710848301		4.67758847290907
id-1260_AU17-33_AU24-100_AU6-33	1	1	2	6	34	test_extra	id-1260_AU17-33_AU24-100_AU6-33	valence	-0.059783831894259		1.16036810912237
id-1260_AU17-33_AU24-100_AU6-33	1	1	2	6	34	test_extra	id-1260_AU17-33_AU24-100_AU6-33	arousal	-0.442943845398371		1.16036810912237
id-1323_AU12-66_AU16Open-33_AU7-66_AU9-100	1	1	2	6	35	test	id-1323_AU12-66_AU16Open-33_AU7-66_AU9-100	valence	0.130437451405655		0.593660933186129
id-1323_AU12-66_AU16Open-33_AU7-66_AU9-100	1	1	2	6	35	test	id-1323_AU12-66_AU16Open-33_AU7-66_AU9-100	arousal	0.07065361951139701		0.593660933186129
id-1270_AU12-33_AU15-33_AU17-100_AU24-66	1	1	2	6	36	test_extra	id-1270_AU12-33_AU15-33_AU17-100_AU24-66	valence	0.08152340712853501		0.6269838826233349
id-1270_AU12-33_AU15-33_AU17-100_AU24-66	1	1	2	6	36	test_extra	id-1270_AU12-33_AU15-33_AU17-100_AU24-66	arousal	-0.100545535458526		0.6269838826233349
id-1380_AU25-33_AU4-66_AU5-100	1	1	2	7	1	test_extra	id-1380_AU25-33_AU4-66_AU5-100	valence	-0.065218725702828		1.0271387958669
id-1380_AU25-33_AU4-66_AU5-100	1	1	2	7	1	test_extra	id-1380_AU25-33_AU4-66_AU5-100	arousal	-0.402182141834104		1.0271387958669
id-1370_AU1-33_AU15-33_AU2-100	1	1	2	7	2	train	id-1370_AU1-33_AU15-33_AU2-100	valence	0.0		1.32717061164158
id-1370_AU1-33_AU15-33_AU2-100	1	1	2	7	2	train	id-1370_AU1-33_AU15-33_AU2-100	arousal	-0.535337040144044		1.32717061164158
id-1345_AU12-66_AU20-100	1	1	2	7	3	train	id-1345_AU12-66_AU20-100	valence	0.097828088554242		1.06878576633471
id-1345_AU12-66_AU20-100	1	1	2	7	3	train	id-1345_AU12-66_AU20-100	arousal	-0.173916601874207		1.06878576633471
id-1376_AU16Open-66_AU17-66_AU6-33	1	1	2	7	4	train	id-1376_AU16Open-66_AU17-66_AU6-33	valence	0.008152340712853002		1.06038054564942
id-1376_AU16Open-66_AU17-66_AU6-33	1	1	2	7	4	train	id-1376_AU16Open-66_AU17-66_AU6-33	arousal	-0.467400867536932		1.06038054564942
id-1266_AU13-66_AU17-100_AU2-100_AU9-33	1	1	2	7	5	test	id-1266_AU13-66_AU17-100_AU2-100_AU9-33	valence	-0.051631491181405004		0.5101861796379129
id-1266_AU13-66_AU17-100_AU2-100_AU9-33	1	1	2	7	5	test	id-1266_AU13-66_AU17-100_AU2-100_AU9-33	arousal	0.135872345214224		0.5101861796379129
id-1307_AU16Open-66_AU17-66_AU43-33	1	1	2	7	6	test_extra	id-1307_AU16Open-66_AU17-66_AU43-33	valence	-0.24457022138560397		2.7522369146304304
id-1307_AU16Open-66_AU17-66_AU43-33	1	1	2	7	6	test_extra	id-1307_AU16Open-66_AU17-66_AU43-33	arousal	-0.45653107991979397		2.7522369146304304
id-1309_AU1-66_AU2-66_AU9-33	1	1	2	7	7	test_extra	id-1309_AU1-66_AU2-66_AU9-33	valence	-0.47555320824978503		0.935425446944919
id-1309_AU1-66_AU2-66_AU9-33	1	1	2	7	7	test_extra	id-1309_AU1-66_AU2-66_AU9-33	arousal	-0.097828088554242		0.935425446944919
id-1339_AU17-66_AU2-33_AU20-66_AU22-33	1	1	2	7	8	test_extra	id-1339_AU17-66_AU2-33_AU20-66_AU22-33	valence	0.10598042926709499		2.58565024018799
id-1339_AU17-66_AU2-33_AU20-66_AU22-33	1	1	2	7	8	test_extra	id-1339_AU17-66_AU2-33_AU20-66_AU22-33	arousal	-0.44837873920694		2.58565024018799
id-1355_AU13-33_AU15-100_AU2-100_AU20-66_AU4-33	1	1	2	7	9	test_extra	id-1355_AU13-33_AU15-100_AU2-100_AU20-66_AU4-33	valence	0.097828088554242		4.27763791715961
id-1355_AU13-33_AU15-100_AU2-100_AU20-66_AU4-33	1	1	2	7	9	test_extra	id-1355_AU13-33_AU15-100_AU2-100_AU20-66_AU4-33	arousal	0.100545535458526		4.27763791715961
id-1270_AU11-100_AU15-100_AU20-66_AU7-66	1	1	2	7	10	test	id-1270_AU11-100_AU15-100_AU20-66_AU7-66	valence	0.019022128329991003		0.660369316552533
id-1270_AU11-100_AU15-100_AU20-66_AU7-66	1	1	2	7	10	test	id-1270_AU11-100_AU15-100_AU20-66_AU7-66	arousal	-0.173916601874207		0.660369316552533
id-1302_AU15-66_AU24-100_AU25-100_AU43-33	1	1	2	7	11	test	id-1302_AU15-66_AU24-100_AU25-100_AU43-33	valence	-0.17119915496992302		1.55217998431544
id-1302_AU15-66_AU24-100_AU25-100_AU43-33	1	1	2	7	11	test	id-1302_AU15-66_AU24-100_AU25-100_AU43-33	arousal	-0.5407719339526129		1.55217998431544
id-1266_AU1-66_AU12-100_AU24-100	1	1	2	7	12	test_extra	id-1266_AU1-66_AU12-100_AU24-100	valence	0.5217498056226211		1.44417086097565
id-1266_AU1-66_AU12-100_AU24-100	1	1	2	7	12	test_extra	id-1266_AU1-66_AU12-100_AU24-100	arousal	0.08424085403281899		1.44417086097565
id-1345_AU17-100_AU20-33	1	1	2	7	13	test_extra	id-1345_AU17-100_AU20-33	valence	-0.040761703564267		2.55225846725216
id-1345_AU17-100_AU20-33	1	1	2	7	13	test_extra	id-1345_AU17-100_AU20-33	arousal	-0.45653107991979397		2.55225846725216
id-1370_AU20-33_AU43-100	1	1	2	7	14	test_extra	id-1370_AU20-33_AU43-100	valence	0.073371066415681		1.32716095220349
id-1370_AU20-33_AU43-100	1	1	2	7	14	test_extra	id-1370_AU20-33_AU43-100	arousal	-0.480988102058354		1.32716095220349
id-1310_AU11-33_AU26-33	1	1	2	7	15	train	id-1310_AU11-33_AU26-33	valence	-0.39131235421696603		5.7192988334413695
id-1310_AU11-33_AU26-33	1	1	2	7	15	train	id-1310_AU11-33_AU26-33	arousal	-0.089675747841388		5.7192988334413695
id-1377_AU2-66_AU25-100_AU9-100	1	1	2	7	16	train	id-1377_AU2-66_AU25-100_AU9-100	valence	0.47827065515407		0.693591445601669
id-1377_AU2-66_AU25-100_AU9-100	1	1	2	7	16	train	id-1377_AU2-66_AU25-100_AU9-100	arousal	-0.48370554896263895		0.693591445601669
id-1370_AU20-33_AU26-100	1	1	2	7	17	test_extra	id-1370_AU20-33_AU26-100	valence	0.10326298236281001		2.78558854052517
id-1370_AU20-33_AU26-100	1	1	2	7	17	test_extra	id-1370_AU20-33_AU26-100	arousal	-0.45653107991979397		2.78558854052517
id-1323_AU12-33_AU20-100_AU25-33_AU4-33	1	1	2	7	18	test_extra	id-1323_AU12-33_AU20-100_AU25-33_AU4-33	valence	-0.010869787617138001		2.7689721934948497
id-1323_AU12-33_AU20-100_AU25-33_AU4-33	1	1	2	7	18	test_extra	id-1323_AU12-33_AU20-100_AU25-33_AU4-33	arousal	-0.576098743708311		2.7689721934948497
id-1355_AU26-33_AU7-100	1	1	2	7	19	train	id-1355_AU26-33_AU7-100	valence	-0.127720004501371		1.06882319665874
id-1355_AU26-33_AU7-100	1	1	2	7	19	train	id-1355_AU26-33_AU7-100	arousal	0.375007672791259		1.06882319665874
id-1377_AU17-66_AU24-33_AU4-100	1	1	2	7	20	test	id-1377_AU17-66_AU24-33_AU4-100	valence	-0.42392171706837994		0.8781087544093679
id-1377_AU17-66_AU24-33_AU4-100	1	1	2	7	20	test	id-1377_AU17-66_AU24-33_AU4-100	arousal	0.111415323075664		0.8781087544093679
id-1366_AU20-100_AU22-66_AU4-100	1	1	2	7	21	test_extra	id-1366_AU20-100_AU22-66_AU4-100	valence	-0.3532680975569829		1.3187047176088502
id-1366_AU20-100_AU22-66_AU4-100	1	1	2	7	21	test_extra	id-1366_AU20-100_AU22-66_AU4-100	arousal	-0.34511575684413		1.3187047176088502
id-1270_AU14-66_AU15-100_AU43-33	1	1	2	7	22	train	id-1270_AU14-66_AU15-100_AU43-33	valence	0.0054348938085690005		0.777064689862527
id-1270_AU14-66_AU15-100_AU43-33	1	1	2	7	22	train	id-1270_AU14-66_AU15-100_AU43-33	arousal	-0.673926832262553		0.777064689862527
id-1354_AU6-100	1	1	2	7	23	train	id-1354_AU6-100	valence	-0.184786389491345		0.7102615232570321
id-1354_AU6-100	1	1	2	7	23	train	id-1354_AU6-100	arousal	-0.638600022506854		0.7102615232570321
id-1344_AU1-33_AU10Open-100	1	1	2	7	24	train	id-1344_AU1-33_AU10Open-100	valence	-0.130437451405655		0.7187654513281809
id-1344_AU1-33_AU10Open-100	1	1	2	7	24	train	id-1344_AU1-33_AU10Open-100	arousal	-0.720123429635389		0.7187654513281809
id-1345_AU14-100_AU16Open-100	1	1	2	7	25	train	id-1345_AU14-100_AU16Open-100	valence	0.616860447272578		0.818653099984658
id-1345_AU14-100_AU16Open-100	1	1	2	7	25	train	id-1345_AU14-100_AU16Open-100	arousal	-0.073371066415681		0.818653099984658
id-1347_AU17-66_AU26-100_AU27i-100_AU9-33	1	1	2	7	26	test_extra	id-1347_AU17-66_AU26-100_AU27i-100_AU9-33	valence	-0.173916601874207		0.960259863040846
id-1347_AU17-66_AU26-100_AU27i-100_AU9-33	1	1	2	7	26	test_extra	id-1347_AU17-66_AU26-100_AU27i-100_AU9-33	arousal	0.144024685927078		0.960259863040846
id-1307_AU17-66_AU25-33_AU4-100	1	1	2	7	27	test_extra	id-1307_AU17-66_AU25-33_AU4-100	valence	-0.38044256659982795		3.31896310758566
id-1307_AU17-66_AU25-33_AU4-100	1	1	2	7	27	test_extra	id-1307_AU17-66_AU25-33_AU4-100	arousal	-0.07880596022425		3.31896310758566
id-1344_AU2-33_AU20-100_AU24-100	1	1	2	7	28	test	id-1344_AU2-33_AU20-100_AU24-100	valence	0.059783831894259		1.3103713389973601
id-1344_AU2-33_AU20-100_AU24-100	1	1	2	7	28	test	id-1344_AU2-33_AU20-100_AU24-100	arousal	-0.48642299586692295		1.3103713389973601
id-1302_AU15-100_AU4-100_AU5-66_AU9-100	1	1	2	7	29	test_extra	id-1302_AU15-100_AU4-100_AU5-66_AU9-100	valence	-0.323376181609854		0.5852170747484711
id-1302_AU15-100_AU4-100_AU5-66_AU9-100	1	1	2	7	29	test_extra	id-1302_AU15-100_AU4-100_AU5-66_AU9-100	arousal	0.21196085853418997		0.5852170747484711
id-1306_AU24-66_AU43-100_AU7-100	1	1	2	7	30	test	id-1306_AU24-66_AU43-100_AU7-100	valence	0.057066384989974		1.1938157256863602
id-1306_AU24-66_AU43-100_AU7-100	1	1	2	7	30	test	id-1306_AU24-66_AU43-100_AU7-100	arousal	-0.451096186111225		1.1938157256863602
id-1269_AU11-100_AU13-33_AU25-100	1	1	2	7	31	train	id-1269_AU11-100_AU13-33_AU25-100	valence	0.42120427016409495		0.852018913180473
id-1269_AU11-100_AU13-33_AU25-100	1	1	2	7	31	train	id-1269_AU11-100_AU13-33_AU25-100	arousal	-0.179351495682776		0.852018913180473
id-1294_AU13-66_AU15-33_AU24-100_AU4-66	1	1	2	7	32	train	id-1294_AU13-66_AU15-33_AU24-100_AU4-66	valence	0.179351495682776		2.5189261602345097
id-1294_AU13-66_AU15-33_AU24-100_AU4-66	1	1	2	7	32	train	id-1294_AU13-66_AU15-33_AU24-100_AU4-66	arousal	-0.63588257560257		2.5189261602345097
id-1307_AU20-66_AU43-66	1	1	2	7	33	train	id-1307_AU20-66_AU43-66	valence	-0.08695830093710401		0.8938397535393959
id-1307_AU20-66_AU43-66	1	1	2	7	33	train	id-1307_AU20-66_AU43-66	arousal	-0.801646836763924		0.8938397535393959
id-1376_AU10Open-100_AU11-66_AU25-33_AU27i-66_AU9-100	1	1	2	7	34	train	id-1376_AU10Open-100_AU11-66_AU25-33_AU27i-66_AU9-100	valence	0.092393194745673		0.6102522260471229
id-1376_AU10Open-100_AU11-66_AU25-33_AU27i-66_AU9-100	1	1	2	7	34	train	id-1376_AU10Open-100_AU11-66_AU25-33_AU27i-66_AU9-100	arousal	0.18750383639563		0.6102522260471229
id-1294_AU15-66_AU2-66_AU6-100	1	1	2	7	35	test_extra	id-1294_AU15-66_AU2-66_AU6-100	valence	-0.317941287801285		2.21048640705703
id-1294_AU15-66_AU2-66_AU6-100	1	1	2	7	35	test_extra	id-1294_AU15-66_AU2-66_AU6-100	arousal	-0.250005115194173		2.21048640705703
id-1297_AU11-100_AU24-33	1	1	2	7	36	test	id-1297_AU11-100_AU24-33	valence	-0.366855332078406		0.927023244834345
id-1297_AU11-100_AU24-33	1	1	2	7	36	test	id-1297_AU11-100_AU24-33	arousal	-0.676644279166837		0.927023244834345
id-1306_AU16Open-33_AU17-100_AU22-66_AU4-100	1	1	2	8	1	test_extra	id-1306_AU16Open-33_AU17-100_AU22-66_AU4-100	valence	-0.14945957973564702		1.51873599004102
id-1306_AU16Open-33_AU17-100_AU22-66_AU4-100	1	1	2	8	1	test_extra	id-1306_AU16Open-33_AU17-100_AU22-66_AU4-100	arousal	-0.5706638498997421		1.51873599004102
id-1347_AU13-33_AU22-33_AU43-100	1	1	2	8	2	test_extra	id-1347_AU13-33_AU22-33_AU43-100	valence	0.07880596022425		1.00195724370315
id-1347_AU13-33_AU22-33_AU43-100	1	1	2	8	2	test_extra	id-1347_AU13-33_AU22-33_AU43-100	arousal	-0.407617035642673		1.00195724370315
id-1377_AU17-66_AU2-33_AU20-66_AU5-66	1	1	2	8	3	test_extra	id-1377_AU17-66_AU2-33_AU20-66_AU5-66	valence	-0.019022128329991003		0.801858958917364
id-1377_AU17-66_AU2-33_AU20-66_AU5-66	1	1	2	8	3	test_extra	id-1377_AU17-66_AU2-33_AU20-66_AU5-66	arousal	-0.801646836763924		0.801858958917364
id-1323_AU13-100_AU20-33_AU6-100	1	1	2	8	4	test_extra	id-1323_AU13-100_AU20-33_AU6-100	valence	0.282614478045587		0.777051106277213
id-1323_AU13-100_AU20-33_AU6-100	1	1	2	8	4	test_extra	id-1323_AU13-100_AU20-33_AU6-100	arousal	-0.127720004501371		0.777051106277213
id-1376_AU27i-66_AU6-100	1	1	2	8	5	train	id-1376_AU27i-66_AU6-100	valence	0.250005115194173		2.46059733967013
id-1376_AU27i-66_AU6-100	1	1	2	8	5	train	id-1376_AU27i-66_AU6-100	arousal	0.26902724352416396		2.46059733967013
id-1345_AU11-100_AU20-66	1	1	2	8	6	train	id-1345_AU11-100_AU20-66	valence	0.0		1.93562588029181
id-1345_AU11-100_AU20-66	1	1	2	8	6	train	id-1345_AU11-100_AU20-66	arousal	-0.804364283668208		1.93562588029181
id-1293_AU22-100_AU24-33	1	1	2	8	7	test_extra	id-1293_AU22-100_AU24-33	valence	-0.13315489830994		0.510184066635702
id-1293_AU22-100_AU24-33	1	1	2	8	7	test_extra	id-1293_AU22-100_AU24-33	arousal	-0.6820791729754061		0.510184066635702
id-1273_AU12-100_AU16Open-33_AU20-100_AU22-66_AU5-66	1	1	2	8	8	test	id-1273_AU12-100_AU16Open-33_AU20-100_AU22-66_AU5-66	valence	0.119567663788517		0.702094769957512
id-1273_AU12-100_AU16Open-33_AU20-100_AU22-66_AU5-66	1	1	2	8	8	test	id-1273_AU12-100_AU16Open-33_AU20-100_AU22-66_AU5-66	arousal	0.5570766153783199		0.702094769957512
id-1295_AU15-66_AU17-33_AU20-33_AU25-66	1	1	2	8	9	train	id-1295_AU15-66_AU17-33_AU20-33_AU25-66	valence	-0.5407719339526129		0.74354915537333
id-1295_AU15-66_AU17-33_AU20-33_AU25-66	1	1	2	8	9	train	id-1295_AU15-66_AU17-33_AU20-33_AU25-66	arousal	-0.08152340712853501		0.74354915537333
id-1366_AU10Open-66_AU20-66	1	1	2	8	10	test_extra	id-1366_AU10Open-66_AU20-66	valence	-0.116850216884233		1.7269850296816
id-1366_AU10Open-66_AU20-66	1	1	2	8	10	test_extra	id-1366_AU10Open-66_AU20-66	arousal	-0.184786389491345		1.7269850296816
id-1355_AU10Open-100_AU12-100_AU27i-66	1	1	2	8	11	test_extra	id-1355_AU10Open-100_AU12-100_AU27i-66	valence	-0.13315489830994		0.7936771127460809
id-1355_AU10Open-100_AU12-100_AU27i-66	1	1	2	8	11	test_extra	id-1355_AU10Open-100_AU12-100_AU27i-66	arousal	0.595120872038303		0.7936771127460809
id-1318_AU22-100_AU26-100_AU27i-33_AU4-33_AU6-33	1	1	2	8	12	test	id-1318_AU22-100_AU26-100_AU27i-33_AU4-33_AU6-33	valence	-0.312506393992716		0.7603321277147191
id-1318_AU22-100_AU26-100_AU27i-33_AU4-33_AU6-33	1	1	2	8	12	test	id-1318_AU22-100_AU26-100_AU27i-33_AU4-33_AU6-33	arousal	0.48642299586692295		0.7603321277147191
id-1307_AU10Open-66_AU17-33_AU22-33_AU9-100	1	1	2	8	13	test	id-1307_AU10Open-66_AU17-33_AU22-33_AU9-100	valence	-0.46468342063264706		3.44400061337456
id-1307_AU10Open-66_AU17-33_AU22-33_AU9-100	1	1	2	8	13	test	id-1307_AU10Open-66_AU17-33_AU22-33_AU9-100	arousal	0.152177026639931		3.44400061337456
id-1279_AU1-100_AU13-66_AU22-100_AU27i-100	1	1	2	8	14	train	id-1279_AU1-100_AU13-66_AU22-100_AU27i-100	valence	0.051631491181405004		1.36047484591654
id-1279_AU1-100_AU13-66_AU22-100_AU27i-100	1	1	2	8	14	train	id-1279_AU1-100_AU13-66_AU22-100_AU27i-100	arousal	0.524467252526906		1.36047484591654
id-1345_AU17-66_AU25-66_AU6-100	1	1	2	8	15	test	id-1345_AU17-66_AU25-66_AU6-100	valence	-0.07880596022425		0.660258836725916
id-1345_AU17-66_AU25-66_AU6-100	1	1	2	8	15	test	id-1345_AU17-66_AU25-66_AU6-100	arousal	-0.5407719339526129		0.660258836725916
id-1296_AU22-66_AU24-66_AU25-66_AU5-66_AU6-100	1	1	2	8	16	test_extra	id-1296_AU22-66_AU24-66_AU25-66_AU5-66_AU6-100	valence	0.002717446904284		1.09377956316348
id-1296_AU22-66_AU24-66_AU25-66_AU5-66_AU6-100	1	1	2	8	16	test_extra	id-1296_AU22-66_AU24-66_AU25-66_AU5-66_AU6-100	arousal	-0.850560881041044		1.09377956316348
id-1269_AU15-66_AU16Open-66_AU26-33_AU27i-100	1	1	2	8	17	test	id-1269_AU15-66_AU16Open-66_AU26-33_AU27i-100	valence	-0.13315489830994		3.06897442724039
id-1269_AU15-66_AU16Open-66_AU26-33_AU27i-100	1	1	2	8	17	test	id-1269_AU15-66_AU16Open-66_AU26-33_AU27i-100	arousal	0.3532680975569829		3.06897442724039
id-1323_AU11-66_AU4-33_AU5-100_AU9-66	1	1	2	8	18	train	id-1323_AU11-66_AU4-33_AU5-100_AU9-66	valence	-0.33152852232270696		4.59419673015964
id-1323_AU11-66_AU4-33_AU5-100_AU9-66	1	1	2	8	18	train	id-1323_AU11-66_AU4-33_AU5-100_AU9-66	arousal	-0.048914044277121		4.59419673015964
id-1360_AU11-100_AU16Open-66_AU22-100_AU25-66_AU26-33	1	1	2	8	19	train	id-1360_AU11-100_AU16Open-66_AU22-100_AU25-66_AU26-33	valence	-0.062501278798543		0.877040179037067
id-1360_AU11-100_AU16Open-66_AU22-100_AU25-66_AU26-33	1	1	2	8	19	train	id-1360_AU11-100_AU16Open-66_AU22-100_AU25-66_AU26-33	arousal	-0.5733812968040269		0.877040179037067
id-1362_AU12-66_AU17-100_AU22-100	1	1	2	8	20	test_extra	id-1362_AU12-66_AU17-100_AU22-100	valence	0.505445124196915		2.6356263632633303
id-1362_AU12-66_AU17-100_AU22-100	1	1	2	8	20	test_extra	id-1362_AU12-66_AU17-100_AU22-100	arousal	0.21467830543847402		2.6356263632633303
id-1367_AU25-66_AU4-66_AU6-33	1	1	2	8	21	test	id-1367_AU25-66_AU4-66_AU6-33	valence	0.019022128329991003		0.585371323904838
id-1367_AU25-66_AU4-66_AU6-33	1	1	2	8	21	test	id-1367_AU25-66_AU4-66_AU6-33	arousal	-0.8614306686581821		0.585371323904838
id-1264_AU10Open-33_AU12-66	1	1	2	8	22	train	id-1264_AU10Open-33_AU12-66	valence	-0.255440009002742		0.7686935790698041
id-1264_AU10Open-33_AU12-66	1	1	2	8	22	train	id-1264_AU10Open-33_AU12-66	arousal	-0.28533192494987103		0.7686935790698041
id-1306_AU12-100_AU14-33_AU17-33_AU27i-33	1	1	2	8	23	train	id-1306_AU12-100_AU14-33_AU17-33_AU27i-33	valence	-0.116850216884233		0.693697095708558
id-1306_AU12-100_AU14-33_AU17-33_AU27i-33	1	1	2	8	23	train	id-1306_AU12-100_AU14-33_AU17-33_AU27i-33	arousal	0.138589792118509		0.693697095708558
id-1355_AU10Open-33	1	1	2	8	24	test_extra	id-1355_AU10Open-33	valence	-0.255440009002742		0.7438274679416279
id-1355_AU10Open-33	1	1	2	8	24	test_extra	id-1355_AU10Open-33	arousal	-0.834256199615338		0.7438274679416279
id-1296_AU13-66_AU14-100_AU17-66	1	1	2	8	25	test_extra	id-1296_AU13-66_AU14-100_AU17-66	valence	0.453813633015509		1.27704386169899
id-1296_AU13-66_AU14-100_AU17-66	1	1	2	8	25	test_extra	id-1296_AU13-66_AU14-100_AU17-66	arousal	-0.059783831894259		1.27704386169899
id-1360_AU16Open-33_AU20-66	1	1	2	8	26	test_extra	id-1360_AU16Open-33_AU20-66	valence	0.222830646151328		0.685480234072202
id-1360_AU16Open-33_AU20-66	1	1	2	8	26	test_extra	id-1360_AU16Open-33_AU20-66	arousal	-0.698383854401113		0.685480234072202
id-1310_AU27i-100_AU5-33_AU7-100	1	1	2	8	27	test_extra	id-1310_AU27i-100_AU5-33_AU7-100	valence	-0.255440009002742		0.668626928943922
id-1310_AU27i-100_AU5-33_AU7-100	1	1	2	8	27	test_extra	id-1310_AU27i-100_AU5-33_AU7-100	arousal	-0.08424085403281899		0.668626928943922
id-1285_AU11-33_AU17-33_AU5-100_AU7-33	1	1	2	8	28	train	id-1285_AU11-33_AU17-33_AU5-100_AU7-33	valence	-0.48370554896263895		0.635396951602161
id-1285_AU11-33_AU17-33_AU5-100_AU7-33	1	1	2	8	28	train	id-1285_AU11-33_AU17-33_AU5-100_AU7-33	arousal	-0.66033959774113		0.635396951602161
id-1310_AU13-66_AU14-100_AU4-66_AU9-33	1	1	2	8	29	test_extra	id-1310_AU13-66_AU14-100_AU4-66_AU9-33	valence	0.524467252526906		2.4272212633213703
id-1310_AU13-66_AU14-100_AU4-66_AU9-33	1	1	2	8	29	test_extra	id-1310_AU13-66_AU14-100_AU4-66_AU9-33	arousal	-0.1576119204485		2.4272212633213703
id-1358_AU10Open-33_AU22-100_AU6-100	1	1	2	8	30	test_extra	id-1358_AU10Open-33_AU22-100_AU6-100	valence	-0.28533192494987103		2.85221059266132
id-1358_AU10Open-33_AU22-100_AU6-100	1	1	2	8	30	test_extra	id-1358_AU10Open-33_AU22-100_AU6-100	arousal	-0.051631491181405004		2.85221059266132
id-1289_AU17-33_AU26-66	1	1	2	8	31	test	id-1289_AU17-33_AU26-66	valence	-0.02445702213856		0.53520321949145
id-1289_AU17-33_AU26-66	1	1	2	8	31	test	id-1289_AU17-33_AU26-66	arousal	-0.30435405327986303		0.53520321949145
id-1285_AU24-66_AU9-66	1	1	2	8	32	train	id-1285_AU24-66_AU9-66	valence	-0.429356610876949		0.693731507458324
id-1285_AU24-66_AU9-66	1	1	2	8	32	train	id-1285_AU24-66_AU9-66	arousal	-0.706536195113967		0.693731507458324
id-1309_AU16Open-100_AU2-33_AU5-33_AU7-33	1	1	2	8	33	test_extra	id-1309_AU16Open-100_AU2-33_AU5-33_AU7-33	valence	-0.059783831894259		0.9441765962674252
id-1309_AU16Open-100_AU2-33_AU5-33_AU7-33	1	1	2	8	33	test_extra	id-1309_AU16Open-100_AU2-33_AU5-33_AU7-33	arousal	-0.894040031509596		0.9441765962674252
id-1354_AU10Open-100_AU17-100_AU27i-33_AU4-33	1	1	2	8	34	test_extra	id-1354_AU10Open-100_AU17-100_AU27i-33_AU4-33	valence	-0.17119915496992302		0.818688719164129
id-1354_AU10Open-100_AU17-100_AU27i-33_AU4-33	1	1	2	8	34	test_extra	id-1354_AU10Open-100_AU17-100_AU27i-33_AU4-33	arousal	0.698383854401113		0.818688719164129
id-1378_AU14-66_AU2-66_AU5-33_AU7-66	1	1	2	8	35	test_extra	id-1378_AU14-66_AU2-66_AU5-33_AU7-66	valence	0.375007672791259		0.8688073189559871
id-1378_AU14-66_AU2-66_AU5-33_AU7-66	1	1	2	8	35	test_extra	id-1378_AU14-66_AU2-66_AU5-33_AU7-66	arousal	0.097828088554242		0.8688073189559871
id-1291_AU10Open-66_AU15-33_AU20-100_AU4-100	1	1	2	8	36	test_extra	id-1291_AU10Open-66_AU15-33_AU20-100_AU4-100	valence	-0.494575336579777		3.21901116329172
id-1291_AU10Open-66_AU15-33_AU20-100_AU4-100	1	1	2	8	36	test_extra	id-1291_AU10Open-66_AU15-33_AU20-100_AU4-100	arousal	0.135872345214224		3.21901116329172
id-1358_AU11-100_AU12-100_AU14-100_AU16Open-66_AU6-100	1	1	3	9	1	test	id-1358_AU11-100_AU12-100_AU14-100_AU16Open-66_AU6-100	emotion	Blij	0.6070557887940634	1.1364552638206078
id-1285_AU11-66_AU4-33	1	1	3	9	2	test_extra	id-1285_AU11-66_AU4-33	emotion	Walging	0.2671045984320995	1.4030892695109287
id-1323_AU10Open-33_AU11-33	1	1	3	9	3	train	id-1323_AU10Open-33_AU11-33	emotion	Bang	0.2254845549763765	1.5947808243245165
id-1355_AU12-100_AU26-33_AU5-66	1	1	3	9	4	test_extra	id-1355_AU12-100_AU26-33_AU5-66	emotion	Blij	0.3857033912667203	1.0780787497797064
id-1273_AU11-100_AU15-33_AU20-33	1	1	3	9	5	train	id-1273_AU11-100_AU15-33_AU20-33	emotion	Walging	0.3019134772165195	5.036997460171733
id-1293_AU22-66_AU25-100_AU5-33_AU9-33	1	1	3	9	6	test	id-1293_AU22-66_AU25-100_AU5-33_AU9-33	emotion	Boos	0.7603843030629523	0.6531153801806795
id-1260_AU10Open-100_AU5-66	1	1	3	9	7	train	id-1260_AU10Open-100_AU5-66	emotion	Verrassing	0.2748443579891429	1.594815236073373
id-1356_AU11-100_AU12-33_AU25-66	1	1	3	9	8	test_extra	id-1356_AU11-100_AU12-33_AU25-66	emotion	Blij	0.5658156449873813	1.2448317476764714
id-1264_AU10Open-33_AU25-66_AU4-66	1	1	3	9	9	test	id-1264_AU10Open-33_AU25-66_AU4-66	emotion	Verrassing	0.3389328527883258	1.5114129283128932
id-1307_AU1-66_AU10Open-100_AU6-33	1	1	3	9	10	test_extra	id-1307_AU1-66_AU10Open-100_AU6-33	emotion	Walging	0.343642279978641	0.7447366625792711
id-1260_AU12-66_AU20-100_AU22-66_AU43-66	1	1	3	9	11	test_extra	id-1260_AU12-66_AU20-100_AU22-66_AU43-66	emotion	Blij	0.42602010435100696	0.8383671081628563
id-1354_AU12-33_AU13-33	1	1	3	9	12	test_extra	id-1354_AU12-33_AU13-33	emotion	Blij	0.2690581944747701	1.511473601661237
id-1295_AU12-33_AU2-66_AU27i-66	1	1	3	9	13	test_extra	id-1295_AU12-33_AU2-66_AU27i-66	emotion	Blij	0.5255605217208857	2.4365794479754186
id-1274_AU2-66_AU5-33_AU6-66	1	1	3	9	14	test_extra	id-1274_AU2-66_AU5-33_AU6-66	emotion	Boos	0.4314642551922693	0.9697221885144244
id-1373_AU1-66_AU24-33_AU26-66_AU7-33	1	1	3	9	15	train	id-1373_AU1-66_AU24-33_AU26-66_AU7-33	emotion	Verdrietig	0.5422462003764225	1.0114138338858538
id-1291_AU14-100_AU15-66	1	1	3	9	16	test_extra	id-1291_AU14-100_AU15-66	emotion	Blij	0.16523782819682284	0.6113642688924301
id-1356_AU10Open-66_AU22-100_AU4-100_AU7-33	1	1	3	9	17	test_extra	id-1356_AU10Open-66_AU22-100_AU4-100_AU7-33	emotion	Verdrietig	0.3694233491949087	2.361636997097776
id-1362_AU11-33_AU13-66_AU17-33_AU2-100_AU22-33	1	1	3	9	18	test_extra	id-1362_AU11-33_AU13-66_AU17-33_AU2-100_AU22-33	emotion	Verrassing	0.3699106016345965	0.8864104379890705
id-1273_AU1-33_AU13-33_AU26-33	1	1	3	9	19	test	id-1273_AU1-33_AU13-33_AU26-33	emotion	Verrassing	0.5390417609666286	0.8530539823750587
id-1363_AU2-66_AU24-100_AU26-33	1	1	3	9	20	test_extra	id-1363_AU2-66_AU24-100_AU26-33	emotion	Bang	0.5762794295233854	0.8364379372023905
id-1280_AU11-33_AU17-66_AU2-66_AU26-66_AU9-66	1	1	3	9	21	test	id-1280_AU11-33_AU17-66_AU2-66_AU26-66_AU9-66	emotion	Bang	0.3749724556259066	1.1280778140207983
id-1363_AU1-100_AU25-66_AU5-66	1	1	3	9	22	test_extra	id-1363_AU1-100_AU25-66_AU5-66	emotion	Verrassing	0.5578755780069161	0.8948008676588871
id-1363_AU25-33_AU27i-66	1	1	3	9	23	train	id-1363_AU25-33_AU27i-66	emotion	Verrassing	0.4370341408187713	0.7864500416862938
id-1280_AU20-100_AU27i-66_AU9-33	1	1	3	9	24	test_extra	id-1280_AU20-100_AU27i-66_AU9-33	emotion	Boos	0.4812424631813341	0.7113578695143588
id-1293_AU10Open-100_AU11-33_AU14-33_AU22-33_AU27i-33	1	1	3	9	25	train	id-1293_AU10Open-100_AU11-33_AU14-33_AU22-33_AU27i-33	emotion	Verrassing	0.4259861861427259	1.1197670747178563
id-1356_AU22-100	1	1	3	9	26	train	id-1356_AU22-100	emotion	Geen van allen	0.0	0.7697908308991828
id-1378_AU11-66_AU27i-33_AU4-100	1	1	3	9	27	test_extra	id-1378_AU11-66_AU27i-33_AU4-100	emotion	Verrassing	0.8470737757601925	0.7531877655974313
id-1361_AU10Open-33_AU11-100_AU13-66_AU2-100	1	1	3	9	28	train	id-1361_AU10Open-33_AU11-100_AU13-66_AU2-100	emotion	Blij	0.31830435105679505	2.5782520159546043
id-1360_AU1-66_AU14-66_AU15-66	1	1	3	9	29	test_extra	id-1360_AU1-66_AU14-66_AU15-66	emotion	Verdrietig	0.36286799368045397	1.7032031905127951
id-1361_AU1-100_AU17-66_AU27i-33_AU5-66	1	1	3	9	30	train	id-1361_AU1-100_AU17-66_AU27i-33_AU5-66	emotion	Bang	0.5476839740108405	0.711196979493252
id-1380_AU10Open-33_AU13-33_AU16Open-100_AU22-33_AU43-66	1	1	3	9	31	test	id-1380_AU10Open-33_AU13-33_AU16Open-100_AU22-33_AU43-66	emotion	Blij	0.2918525640236149	0.9629454887708562
id-1339_AU22-33_AU25-100_AU27i-100_AU4-66	1	1	3	9	32	test_extra	id-1339_AU22-33_AU25-100_AU27i-100_AU4-66	emotion	Verrassing	0.4462048047010951	3.1117600040088282
id-1380_AU22-66_AU7-33	1	1	3	9	33	test_extra	id-1380_AU22-66_AU7-33	emotion	Walging	0.3537449122337563	1.1530761387120947
id-1266_AU20-100_AU22-100_AU24-100_AU25-66_AU6-66	1	1	3	9	34	test_extra	id-1266_AU20-100_AU22-100_AU24-100_AU25-66_AU6-66	emotion	Bang	0.1920880736901327	4.361883916491934
id-1291_AU20-33_AU24-100_AU25-33_AU27i-100	1	1	3	9	35	test	id-1291_AU20-33_AU24-100_AU25-33_AU27i-100	emotion	Bang	0.4856872643022322	0.9613601334449412
id-1377_AU10Open-66_AU16Open-66_AU26-100	1	1	3	9	36	test_extra	id-1377_AU10Open-66_AU16Open-66_AU26-100	emotion	Boos	0.4031687670952609	0.7948483196496454
id-1285_AU11-33_AU17-33_AU5-100_AU7-33	1	1	3	10	1	train	id-1285_AU11-33_AU17-33_AU5-100_AU7-33	emotion	Verrassing	0.3780903213853349	0.7218558678978297
id-1291_AU10Open-66_AU15-33_AU20-100_AU4-100	1	1	3	10	2	test_extra	id-1291_AU10Open-66_AU15-33_AU20-100_AU4-100	emotion	Verdrietig	0.5805759203129655	1.3531638584872785
id-1355_AU10Open-33	1	1	3	10	3	test_extra	id-1355_AU10Open-33	emotion	Bang	0.377896554549386	1.7115583028607944
id-1360_AU16Open-33_AU20-66	1	1	3	10	4	test_extra	id-1360_AU16Open-33_AU20-66	emotion	Verdrietig	0.14105378326382514	4.170175155803008
id-1345_AU11-100_AU20-66	1	1	3	10	5	train	id-1345_AU11-100_AU20-66	emotion	Walging	0.2309569930072024	0.8030935558863348
id-1285_AU24-66_AU9-66	1	1	3	10	6	train	id-1285_AU24-66_AU9-66	emotion	Boos	0.32294532778328905	0.7363516663435803
id-1289_AU17-33_AU26-66	1	1	3	10	7	test	id-1289_AU17-33_AU26-66	emotion	Bang	0.21060554521149624	4.09523391235598
id-1323_AU13-100_AU20-33_AU6-100	1	1	3	10	8	test_extra	id-1323_AU13-100_AU20-33_AU6-100	emotion	Blij	0.4869187027384054	0.9977457285667696
id-1295_AU15-66_AU17-33_AU20-33_AU25-66	1	1	3	10	9	train	id-1295_AU15-66_AU17-33_AU20-33_AU25-66	emotion	Walging	0.31411007461775997	1.5532865937257156
id-1293_AU22-100_AU24-33	1	1	3	10	10	test_extra	id-1293_AU22-100_AU24-33	emotion	Geen van allen	0.0	3.078391775953605
id-1362_AU12-66_AU17-100_AU22-100	1	1	3	10	11	test_extra	id-1362_AU12-66_AU17-100_AU22-100	emotion	Blij	0.694410080171557	0.7196740422514267
id-1264_AU10Open-33_AU12-66	1	1	3	10	12	train	id-1264_AU10Open-33_AU12-66	emotion	Walging	0.2956836747772254	5.0536005254734855
id-1367_AU25-66_AU4-66_AU6-33	1	1	3	10	13	test	id-1367_AU25-66_AU4-66_AU6-33	emotion	Geen van allen	0.0	2.0698504175597923
id-1355_AU10Open-100_AU12-100_AU27i-66	1	1	3	10	14	test_extra	id-1355_AU10Open-100_AU12-100_AU27i-66	emotion	Bang	0.7649052635093011	0.9364433102655312
id-1269_AU15-66_AU16Open-66_AU26-33_AU27i-100	1	1	3	10	15	test	id-1269_AU15-66_AU16Open-66_AU26-33_AU27i-100	emotion	Verrassing	0.8392154935510164	0.7947200302342026
id-1273_AU12-100_AU16Open-33_AU20-100_AU22-66_AU5-66	1	1	3	10	16	test	id-1273_AU12-100_AU16Open-33_AU20-100_AU22-66_AU5-66	emotion	Blij	0.7186744022934571	1.0198670499048603
id-1323_AU11-66_AU4-33_AU5-100_AU9-66	1	1	3	10	17	train	id-1323_AU11-66_AU4-33_AU5-100_AU9-66	emotion	Boos	0.3165290923609427	2.236601302454801
id-1345_AU17-66_AU25-66_AU6-100	1	1	3	10	18	test	id-1345_AU17-66_AU25-66_AU6-100	emotion	Walging	0.2480200937776656	0.7530579668937207
id-1347_AU13-33_AU22-33_AU43-100	1	1	3	10	19	test_extra	id-1347_AU13-33_AU22-33_AU43-100	emotion	Walging	0.4036095637898582	3.6633640443105833
id-1307_AU10Open-66_AU17-33_AU22-33_AU9-100	1	1	3	10	20	test	id-1307_AU10Open-66_AU17-33_AU22-33_AU9-100	emotion	Walging	0.6037034368015761	0.8114272363563941
id-1318_AU22-100_AU26-100_AU27i-33_AU4-33_AU6-33	1	1	3	10	21	test	id-1318_AU22-100_AU26-100_AU27i-33_AU4-33_AU6-33	emotion	Verrassing	0.4799613569646155	0.8280312072301967
id-1360_AU11-100_AU16Open-66_AU22-100_AU25-66_AU26-33	1	1	3	10	22	train	id-1360_AU11-100_AU16Open-66_AU22-100_AU25-66_AU26-33	emotion	Verrassing	0.5788791697730485	0.7448305402458573
id-1376_AU27i-66_AU6-100	1	1	3	10	23	train	id-1376_AU27i-66_AU6-100	emotion	Verdrietig	0.4581828234361365	0.8198786412303889
id-1279_AU1-100_AU13-66_AU22-100_AU27i-100	1	1	3	10	24	train	id-1279_AU1-100_AU13-66_AU22-100_AU27i-100	emotion	Bang	0.7922909600853929	0.8863011655921582
id-1377_AU17-66_AU2-33_AU20-66_AU5-66	1	1	3	10	25	test_extra	id-1377_AU17-66_AU2-33_AU20-66_AU5-66	emotion	Geen van allen	0.0	4.203475164074916
id-1309_AU16Open-100_AU2-33_AU5-33_AU7-33	1	1	3	10	26	test_extra	id-1309_AU16Open-100_AU2-33_AU5-33_AU7-33	emotion	Verdrietig	0.4500875276608209	0.9781322389189882
id-1366_AU10Open-66_AU20-66	1	1	3	10	27	test_extra	id-1366_AU10Open-66_AU20-66	emotion	Verrassing	0.4610315436210909	0.9864194333404156
id-1378_AU14-66_AU2-66_AU5-33_AU7-66	1	1	3	10	28	test_extra	id-1378_AU14-66_AU2-66_AU5-33_AU7-66	emotion	Blij	0.5834288086876488	1.2448118250840707
id-1296_AU22-66_AU24-66_AU25-66_AU5-66_AU6-100	1	1	3	10	29	test_extra	id-1296_AU22-66_AU24-66_AU25-66_AU5-66_AU6-100	emotion	Verrassing	0.5056952383554129	0.6696837318750113
id-1306_AU16Open-33_AU17-100_AU22-66_AU4-100	1	1	3	10	30	test_extra	id-1306_AU16Open-33_AU17-100_AU22-66_AU4-100	emotion	Boos	0.5514659166216448	0.7615806101266571
id-1354_AU10Open-100_AU17-100_AU27i-33_AU4-33	1	1	3	10	31	test_extra	id-1354_AU10Open-100_AU17-100_AU27i-33_AU4-33	emotion	Verdrietig	0.6804589966923351	0.7945733275137172
id-1310_AU13-66_AU14-100_AU4-66_AU9-33	1	1	3	10	32	test_extra	id-1310_AU13-66_AU14-100_AU4-66_AU9-33	emotion	Blij	0.2261631839510964	0.7030181518957761
id-1296_AU13-66_AU14-100_AU17-66	1	1	3	10	33	test_extra	id-1296_AU13-66_AU14-100_AU17-66	emotion	Blij	0.4349493883827921	0.6694995988318624
id-1306_AU12-100_AU14-33_AU17-33_AU27i-33	1	1	3	10	34	train	id-1306_AU12-100_AU14-33_AU17-33_AU27i-33	emotion	Verrassing	0.5185114637124567	0.6112293386122474
id-1358_AU10Open-33_AU22-100_AU6-100	1	1	3	10	35	test_extra	id-1358_AU10Open-33_AU22-100_AU6-100	emotion	Walging	0.7766990042300357	0.7780759123188545
id-1310_AU27i-100_AU5-33_AU7-100	1	1	3	10	36	test_extra	id-1310_AU27i-100_AU5-33_AU7-100	emotion	Bang	0.6121379237776962	0.7532279126371577
id-1376_AU12-33_AU17-100_AU22-100_AU26-100	1	1	3	11	1	train	id-1376_AU12-33_AU17-100_AU22-100_AU26-100	valence	0.3695727789826902		1.4854885049662698
id-1376_AU12-33_AU17-100_AU22-100_AU26-100	1	1	3	11	1	train	id-1376_AU12-33_AU17-100_AU22-100_AU26-100	arousal	0.4538136330155093		1.4854885049662698
id-1318_AU10Open-33_AU11-33_AU16Open-100_AU26-66_AU7-66	1	1	3	11	2	test_extra	id-1318_AU10Open-33_AU11-33_AU16Open-100_AU26-66_AU7-66	valence	-0.4320740577812335		0.8520195168957798
id-1318_AU10Open-33_AU11-33_AU16Open-100_AU26-66_AU7-66	1	1	3	11	2	test_extra	id-1318_AU10Open-33_AU11-33_AU16Open-100_AU26-66_AU7-66	arousal	0.3641378851741212		0.8520195168957798
id-1339_AU12-33_AU14-100_AU16Open-33	1	1	3	11	3	test_extra	id-1339_AU12-33_AU14-100_AU16Open-33	valence	0.6521872570282768		0.943693322490617
id-1339_AU12-33_AU14-100_AU16Open-33	1	1	3	11	3	test_extra	id-1339_AU12-33_AU14-100_AU16Open-33	arousal	0.1277200045013709		0.943693322490617
id-1367_AU17-66_AU9-100	1	1	3	11	4	test_extra	id-1367_AU17-66_AU9-100	valence	0.19565617710848307		0.5602127129077417
id-1367_AU17-66_AU9-100	1	1	3	11	4	test_extra	id-1367_AU17-66_AU9-100	arousal	-0.1820689425870606		0.5602127129077417
id-1344_AU20-100_AU22-66_AU7-66	1	1	3	11	5	train	id-1344_AU20-100_AU22-66_AU7-66	valence	-0.3940298011212506		1.0020713458197859
id-1344_AU20-100_AU22-66_AU7-66	1	1	3	11	5	train	id-1344_AU20-100_AU22-66_AU7-66	arousal	-0.8070817305724926		1.0020713458197859
id-1273_AU1-100_AU14-66_AU25-33_AU5-100	1	1	3	11	6	train	id-1273_AU1-100_AU14-66_AU25-33_AU5-100	valence	0.33424596922699185		0.7686790899115294
id-1273_AU1-100_AU14-66_AU25-33_AU5-100	1	1	3	11	6	train	id-1273_AU1-100_AU14-66_AU25-33_AU5-100	arousal	-0.8750179031796047		0.7686790899115294
id-1309_AU12-33_AU15-66_AU43-100_AU5-66	1	1	3	11	7	test_extra	id-1309_AU12-33_AU15-66_AU43-100_AU5-66	valence	-0.100545535458526		1.085375248051605
id-1309_AU12-33_AU15-66_AU43-100_AU5-66	1	1	3	11	7	test_extra	id-1309_AU12-33_AU15-66_AU43-100_AU5-66	arousal	-0.2608749028113107		1.085375248051605
id-1306_AU22-66_AU25-33_AU43-33	1	1	3	11	8	test_extra	id-1306_AU22-66_AU25-33_AU43-33	valence	-0.00815234071285346		1.3436988162957275
id-1306_AU22-66_AU25-33_AU43-33	1	1	3	11	8	test_extra	id-1306_AU22-66_AU25-33_AU43-33	arousal	-0.9184970536481566		1.3436988162957275
id-1266_AU11-66_AU17-100_AU7-33	1	1	3	11	9	train	id-1266_AU11-66_AU17-100_AU7-33	valence	-0.03532680975569833		1.0438209478197678
id-1266_AU11-66_AU17-100_AU7-33	1	1	3	11	9	train	id-1266_AU11-66_AU17-100_AU7-33	arousal	-0.6087081065597252		1.0438209478197678
id-1354_AU10Open-33_AU17-66_AU6-66_AU7-100	1	1	3	11	10	test_extra	id-1354_AU10Open-33_AU17-66_AU6-66_AU7-100	valence	-0.11956766378851742		1.3520647955119784
id-1354_AU10Open-33_AU17-66_AU6-66_AU7-100	1	1	3	11	10	test_extra	id-1354_AU10Open-33_AU17-66_AU6-66_AU7-100	arousal	-0.05163149118140525		1.3520647955119784
id-1360_AU1-100_AU11-66	1	1	3	11	11	test	id-1360_AU1-100_AU11-66	valence	0.024457022138560384		1.9354846110054496
id-1360_AU1-100_AU11-66	1	1	3	11	11	test	id-1360_AU1-100_AU11-66	arousal	-0.5054451241969146		1.9354846110054496
id-1270_AU12-100_AU13-100_AU14-66_AU2-100_AU25-66	1	1	3	11	12	test_extra	id-1270_AU12-100_AU13-100_AU14-66_AU2-100_AU25-66	valence	0.5299021463354749		0.5187118414460201
id-1270_AU12-100_AU13-100_AU14-66_AU2-100_AU25-66	1	1	3	11	12	test_extra	id-1270_AU12-100_AU13-100_AU14-66_AU2-100_AU25-66	arousal	0.19837362401276756		0.5187118414460201
id-1291_AU1-100_AU16Open-100_AU6-33	1	1	3	11	13	test_extra	id-1291_AU1-100_AU16Open-100_AU6-33	valence	0.4157693763555265		1.3522893774552358
id-1291_AU1-100_AU16Open-100_AU6-33	1	1	3	11	13	test_extra	id-1291_AU1-100_AU16Open-100_AU6-33	arousal	-0.21467830543847446		1.3522893774552358
id-1264_AU13-100_AU16Open-100_AU20-66_AU26-33_AU7-66	1	1	3	11	14	test_extra	id-1264_AU13-100_AU16Open-100_AU20-66_AU26-33_AU7-66	valence	0.01902212832999141		0.9687979010041088
id-1264_AU13-100_AU16Open-100_AU20-66_AU26-33_AU7-66	1	1	3	11	14	test_extra	id-1264_AU13-100_AU16Open-100_AU20-66_AU26-33_AU7-66	arousal	0.14130723902279332		0.9687979010041088
id-1335_AU43-66_AU5-66	1	1	3	11	15	test	id-1335_AU43-66_AU5-66	valence	0.26359234971559525		0.7936937149052028
id-1335_AU43-66_AU5-66	1	1	3	11	15	test	id-1335_AU43-66_AU5-66	arousal	-0.8777353500838894		0.7936937149052028
id-1323_AU2-33_AU22-66	1	1	3	11	16	train	id-1323_AU2-33_AU22-66	valence	0.08967574784138807		1.2271447122730024
id-1323_AU2-33_AU22-66	1	1	3	11	16	train	id-1323_AU2-33_AU22-66	arousal	-0.8451259872324756		1.2271447122730024
id-1273_AU13-33_AU4-100_AU9-100	1	1	3	11	17	train	id-1273_AU13-33_AU4-100_AU9-100	valence	-0.0054348938085689745		3.0190408660646426
id-1273_AU13-33_AU4-100_AU9-100	1	1	3	11	17	train	id-1273_AU13-33_AU4-100_AU9-100	arousal	-0.7880596022425012		3.0190408660646426
id-1306_AU11-33_AU6-66	1	1	3	11	18	train	id-1306_AU11-33_AU6-66	valence	-0.0054348938085689745		1.0783591753497603
id-1306_AU11-33_AU6-66	1	1	3	11	18	train	id-1306_AU11-33_AU6-66	arousal	-0.8261038589024841		1.0783591753497603
id-1380_AU12-33_AU13-33_AU22-33_AU9-33	1	1	3	11	19	train	id-1380_AU12-33_AU13-33_AU22-33_AU9-33	valence	0.20652596472562101		3.2190120688646857
id-1380_AU12-33_AU13-33_AU22-33_AU9-33	1	1	3	11	19	train	id-1380_AU12-33_AU13-33_AU22-33_AU9-33	arousal	-0.42120427016409545		3.2190120688646857
id-1280_AU7-66	1	1	3	11	20	test_extra	id-1280_AU7-66	valence	-0.2744621373327332		0.8187044157521086
id-1280_AU7-66	1	1	3	11	20	test_extra	id-1280_AU7-66	arousal	-0.6358825756025699		0.8187044157521086
id-1274_AU10Open-66_AU2-33_AU43-100_AU9-66	1	1	3	11	21	test	id-1274_AU10Open-66_AU2-33_AU43-100_AU9-66	valence	-0.07608851331996565		6.727928032354613
id-1274_AU10Open-66_AU2-33_AU43-100_AU9-66	1	1	3	11	21	test	id-1274_AU10Open-66_AU2-33_AU43-100_AU9-66	arousal	-0.6005557658468715		6.727928032354613
id-1274_AU26-100_AU9-33	1	1	3	11	22	test_extra	id-1274_AU26-100_AU9-33	valence	0.03804425665998282		6.077794098203412
id-1274_AU26-100_AU9-33	1	1	3	11	22	test_extra	id-1274_AU26-100_AU9-33	arousal	-0.4429438453983714		6.077794098203412
id-1306_AU16Open-66_AU2-33_AU5-33_AU6-100	1	1	3	11	23	test_extra	id-1306_AU16Open-66_AU2-33_AU5-33_AU6-100	valence	0.02173957523427589		8.077917557900946
id-1306_AU16Open-66_AU2-33_AU5-33_AU6-100	1	1	3	11	23	test_extra	id-1306_AU16Open-66_AU2-33_AU5-33_AU6-100	arousal	-0.3940298011212506		8.077917557900946
id-1274_AU2-33_AU20-100_AU25-66_AU6-66	1	1	3	11	24	test_extra	id-1274_AU2-33_AU20-100_AU25-66_AU6-66	valence	0.029891915947129363		1.8188767763558644
id-1274_AU2-33_AU20-100_AU25-66_AU6-66	1	1	3	11	24	test_extra	id-1274_AU2-33_AU20-100_AU25-66_AU6-66	arousal	-0.16032936735278475		1.8188767763558644
id-1354_AU20-100_AU43-66_AU9-33	1	1	3	11	25	test_extra	id-1354_AU20-100_AU43-66_AU9-33	valence	-0.5597940622826043		0.7187077965554636
id-1354_AU20-100_AU43-66_AU9-33	1	1	3	11	25	test_extra	id-1354_AU20-100_AU43-66_AU9-33	arousal	0.09511064164995704		0.7187077965554636
id-1285_AU16Open-33_AU5-33	1	1	3	11	26	test	id-1285_AU16Open-33_AU5-33	valence	0.08967574784138807		3.194068380371391
id-1285_AU16Open-33_AU5-33	1	1	3	11	26	test	id-1285_AU16Open-33_AU5-33	arousal	-0.7174059827311046		3.194068380371391
id-1355_AU11-100_AU15-100_AU2-66_AU25-33	1	1	3	11	27	test_extra	id-1355_AU11-100_AU15-100_AU2-66_AU25-33	valence	-0.06793617260711217		1.293736276805248
id-1355_AU11-100_AU15-100_AU2-66_AU25-33	1	1	3	11	27	test_extra	id-1355_AU11-100_AU15-100_AU2-66_AU25-33	arousal	-0.7771898146253633		1.293736276805248
id-1342_AU14-100_AU25-66	1	1	3	11	28	train	id-1342_AU14-100_AU25-66	valence	0.4266391639726645		0.726908659747096
id-1342_AU14-100_AU25-66	1	1	3	11	28	train	id-1342_AU14-100_AU25-66	arousal	0.0815234071285346		0.726908659747096
id-1279_AU22-33_AU26-33_AU4-33	1	1	3	11	29	test	id-1279_AU22-33_AU26-33_AU4-33	valence	0.2907668187584401		2.643889409089752
id-1279_AU22-33_AU26-33_AU4-33	1	1	3	11	29	test	id-1279_AU22-33_AU26-33_AU4-33	arousal	-0.20380851782133647		2.643889409089752
id-1370_AU10Open-100_AU2-33_AU27i-66_AU5-66	1	1	3	11	30	test	id-1370_AU10Open-100_AU2-33_AU27i-66_AU5-66	valence	0.2880493718541556		1.1020172529642878
id-1370_AU10Open-100_AU2-33_AU27i-66_AU5-66	1	1	3	11	30	test	id-1370_AU10Open-100_AU2-33_AU27i-66_AU5-66	arousal	0.23370043376846586		1.1020172529642878
id-1354_AU1-66_AU10Open-100	1	1	3	11	31	test	id-1354_AU1-66_AU10Open-100	valence	0.0027174469042844872		2.052247902242016
id-1354_AU1-66_AU10Open-100	1	1	3	11	31	test	id-1354_AU1-66_AU10Open-100	arousal	-0.2581574559070263		2.052247902242016
id-1309_AU26-33_AU5-66	1	1	3	11	32	test_extra	id-1309_AU26-33_AU5-66	valence	-0.100545535458526		1.026980622563315
id-1309_AU26-33_AU5-66	1	1	3	11	32	test_extra	id-1309_AU26-33_AU5-66	arousal	-0.4646834206326473		1.026980622563315
id-1291_AU14-33_AU7-33	1	1	3	11	33	test_extra	id-1291_AU14-33_AU7-33	valence	0.029891915947129363		1.2688233777726057
id-1291_AU14-33_AU7-33	1	1	3	11	33	test_extra	id-1291_AU14-33_AU7-33	arousal	-0.831538752711053		1.2688233777726057
id-1290_AU13-100_AU20-33_AU25-33	1	1	3	11	34	test_extra	id-1290_AU13-100_AU20-33_AU25-33	valence	-0.06793617260711217		3.7357014653971423
id-1290_AU13-100_AU20-33_AU25-33	1	1	3	11	34	test_extra	id-1290_AU13-100_AU20-33_AU25-33	arousal	-0.3777251196955437		3.7357014653971423
id-1307_AU1-100_AU13-100	1	1	3	11	35	train	id-1307_AU1-100_AU13-100	valence	0.08967574784138807		9.078086598072332
id-1307_AU1-100_AU13-100	1	1	3	11	35	train	id-1307_AU1-100_AU13-100	arousal	-0.7717549208167943		9.078086598072332
id-1380_AU1-100_AU15-66_AU7-66	1	1	3	11	36	train	id-1380_AU1-100_AU15-66_AU7-66	valence	0.17663404877849165		0.918729409549087
id-1380_AU1-100_AU15-66_AU7-66	1	1	3	11	36	train	id-1380_AU1-100_AU15-66_AU7-66	arousal	-0.836973646519622		0.918729409549087
id-1309_AU1-66_AU2-66_AU9-33	1	1	3	12	1	test_extra	id-1309_AU1-66_AU2-66_AU9-33	emotion	Walging	0.3374895169304876	1.844997708902156
id-1345_AU17-100_AU20-33	1	1	3	12	2	test_extra	id-1345_AU17-100_AU20-33	emotion	Verrassing	0.3226886504422146	0.8614839553711136
id-1307_AU20-66_AU43-66	1	1	3	12	3	train	id-1307_AU20-66_AU43-66	emotion	Verrassing	0.3739415660232153	1.1781345330355182
id-1347_AU17-66_AU26-100_AU27i-100_AU9-33	1	1	3	12	4	test_extra	id-1347_AU17-66_AU26-100_AU27i-100_AU9-33	emotion	Bang	0.7634799657196605	1.20317300476745
id-1377_AU17-66_AU24-33_AU4-100	1	1	3	12	5	test	id-1377_AU17-66_AU24-33_AU4-100	emotion	Verdrietig	0.4104511085235356	1.0114005521572835
id-1294_AU13-66_AU15-33_AU24-100_AU4-66	1	1	3	12	6	train	id-1294_AU13-66_AU15-33_AU24-100_AU4-66	emotion	Verdrietig	0.5437545800660623	0.8780003875845068
id-1355_AU13-33_AU15-100_AU2-100_AU20-66_AU4-33	1	1	3	12	7	test_extra	id-1355_AU13-33_AU15-100_AU2-100_AU20-66_AU4-33	emotion	Bang	0.3169137651722689	1.1779042158013908
id-1269_AU11-100_AU13-33_AU25-100	1	1	3	12	8	train	id-1269_AU11-100_AU13-33_AU25-100	emotion	Verrassing	0.26180064550842197	0.8781440717311852
id-1302_AU15-100_AU4-100_AU5-66_AU9-100	1	1	3	12	9	test_extra	id-1302_AU15-100_AU4-100_AU5-66_AU9-100	emotion	Boos	0.5995366447107354	0.6947647655078981
id-1306_AU24-66_AU43-100_AU7-100	1	1	3	12	10	test	id-1306_AU24-66_AU43-100_AU7-100	emotion	Verdrietig	0.2460765046130353	3.020022204634188
id-1376_AU16Open-66_AU17-66_AU6-33	1	1	3	12	11	train	id-1376_AU16Open-66_AU17-66_AU6-33	emotion	Blij	0.28350137681444604	0.6196671599018373
id-1297_AU11-100_AU24-33	1	1	3	12	12	test	id-1297_AU11-100_AU24-33	emotion	Boos	0.22094728582549286	1.0971268604234865
id-1355_AU26-33_AU7-100	1	1	3	12	13	train	id-1355_AU26-33_AU7-100	emotion	Bang	0.2721841817560824	0.7778969108512683
id-1344_AU1-33_AU10Open-100	1	1	3	12	14	train	id-1344_AU1-33_AU10Open-100	emotion	Geen van allen	0.0	10.704480651239463
id-1370_AU20-33_AU26-100	1	1	3	12	15	test_extra	id-1370_AU20-33_AU26-100	emotion	Verrassing	0.3607949964081033	0.7948437917884803
id-1270_AU11-100_AU15-100_AU20-66_AU7-66	1	1	3	12	16	test	id-1270_AU11-100_AU15-100_AU20-66_AU7-66	emotion	Verdrietig	0.4105991265122893	3.0449417445306612
id-1370_AU20-33_AU43-100	1	1	3	12	17	test_extra	id-1370_AU20-33_AU43-100	emotion	Verrassing	0.3894572912893488	1.278167676983685
id-1376_AU10Open-100_AU11-66_AU25-33_AU27i-66_AU9-100	1	1	3	12	18	train	id-1376_AU10Open-100_AU11-66_AU25-33_AU27i-66_AU9-100	emotion	Bang	0.3678837207248586	1.0196925762984392
id-1370_AU1-33_AU15-33_AU2-100	1	1	3	12	19	train	id-1370_AU1-33_AU15-33_AU2-100	emotion	Verrassing	0.26124901848248644	0.6531842036793023
id-1323_AU12-33_AU20-100_AU25-33_AU4-33	1	1	3	12	20	test_extra	id-1323_AU12-33_AU20-100_AU25-33_AU4-33	emotion	Bang	0.25165199793632675	1.1278647026620092
id-1266_AU1-66_AU12-100_AU24-100	1	1	3	12	21	test_extra	id-1266_AU1-66_AU12-100_AU24-100	emotion	Blij	0.5658156449873813	0.8698728757544814
id-1345_AU12-66_AU20-100	1	1	3	12	22	train	id-1345_AU12-66_AU20-100	emotion	Blij	0.26489768786665074	0.9698456482119582
id-1307_AU17-66_AU25-33_AU4-100	1	1	3	12	23	test_extra	id-1307_AU17-66_AU25-33_AU4-100	emotion	Walging	0.3517420751558125	1.661793781857341
id-1354_AU6-100	1	1	3	12	24	train	id-1354_AU6-100	emotion	Walging	0.35982225896174697	2.6032681502356354
id-1380_AU25-33_AU4-66_AU5-100	1	1	3	12	25	test_extra	id-1380_AU25-33_AU4-66_AU5-100	emotion	Verrassing	0.33776855180341664	0.6864470834834719
id-1345_AU14-100_AU16Open-100	1	1	3	12	26	train	id-1345_AU14-100_AU16Open-100	emotion	Blij	0.4836271088311759	0.8697684330763877
id-1344_AU2-33_AU20-100_AU24-100	1	1	3	12	27	test	id-1344_AU2-33_AU20-100_AU24-100	emotion	Bang	0.4054923365158377	0.6226208350462912
id-1310_AU11-33_AU26-33	1	1	3	12	28	train	id-1310_AU11-33_AU26-33	emotion	Verdrietig	0.3062371994746109	6.0122249248524895
id-1302_AU15-66_AU24-100_AU25-100_AU43-33	1	1	3	12	29	test	id-1302_AU15-66_AU24-100_AU25-100_AU43-33	emotion	Verdrietig	0.3465882073916309	0.6530981743062512
id-1266_AU13-66_AU17-100_AU2-100_AU9-33	1	1	3	12	30	test	id-1266_AU13-66_AU17-100_AU2-100_AU9-33	emotion	Walging	0.6004936699831299	0.5948098026392472
id-1377_AU2-66_AU25-100_AU9-100	1	1	3	12	31	train	id-1377_AU2-66_AU25-100_AU9-100	emotion	Boos	0.15108133461674625	0.6365373690468914
id-1307_AU16Open-66_AU17-66_AU43-33	1	1	3	12	32	test_extra	id-1307_AU16Open-66_AU17-66_AU43-33	emotion	Verrassing	0.3986263388643201	0.6531914482575303
id-1270_AU14-66_AU15-100_AU43-33	1	1	3	12	33	train	id-1270_AU14-66_AU15-100_AU43-33	emotion	Walging	0.20557672274071687	1.2447517554519436
id-1294_AU15-66_AU2-66_AU6-100	1	1	3	12	34	test_extra	id-1294_AU15-66_AU2-66_AU6-100	emotion	Bang	0.4118687805943131	1.5362723985772389
id-1366_AU20-100_AU22-66_AU4-100	1	1	3	12	35	test_extra	id-1366_AU20-100_AU22-66_AU4-100	emotion	Verdrietig	0.4741921335296653	1.653189637113428
id-1339_AU17-66_AU2-33_AU20-66_AU22-33	1	1	3	12	36	test_extra	id-1339_AU17-66_AU2-33_AU20-66_AU22-33	emotion	Blij	0.4479898153717347	0.661505809850496
id-1310_AU14-100_AU15-66_AU2-66_AU24-100_AU43-66	1	1	4	13	1	test_extra	id-1310_AU14-100_AU15-66_AU2-66_AU24-100_AU43-66	emotion	Verdrietig	0.1074177876230596	4.670341781115893
id-1356_AU12-33_AU43-33	1	1	4	13	2	test_extra	id-1356_AU12-33_AU43-33	emotion	Blij	0.3388533278742317	0.6780270717836174
id-1260_AU12-66_AU25-33	1	1	4	13	3	test	id-1260_AU12-66_AU25-33	emotion	Verrassing	0.28776804658828264	0.8110139935079133
id-1339_AU11-100_AU20-100_AU4-33	1	1	4	13	4	train	id-1339_AU11-100_AU20-100_AU4-33	emotion	Bang	0.4883933731160329	0.9611669446776432
id-1363_AU7-66	1	1	4	13	5	test_extra	id-1363_AU7-66	emotion	Walging	0.4578529792774979	1.0280193140470146
id-1270_AU13-100_AU17-100_AU25-100	1	1	4	13	6	test_extra	id-1270_AU13-100_AU17-100_AU25-100	emotion	Blij	0.4364761339796401	0.8363069310698847
id-1290_AU10Open-33_AU14-66_AU24-66	1	1	4	13	7	test	id-1290_AU10Open-33_AU14-66_AU24-66	emotion	Blij	0.16772686393116604	2.553328853768108
id-1293_AU24-33_AU27i-33_AU4-33	1	1	4	13	8	test_extra	id-1293_AU24-33_AU27i-33_AU4-33	emotion	Verrassing	0.3062371994746108	1.6780753689754415
id-1335_AU24-100_AU25-100_AU27i-66	1	1	4	13	9	train	id-1335_AU24-100_AU25-100_AU27i-66	emotion	Verrassing	0.8246967153495716	0.8696504068129798
id-1266_AU15-33_AU5-66_AU9-33	1	1	4	13	10	train	id-1266_AU15-33_AU5-66_AU9-33	emotion	Walging	0.4281192557512484	0.8280037382028241
id-1279_AU17-66_AU20-33_AU24-100_AU27i-66	1	1	4	13	11	test_extra	id-1279_AU17-66_AU20-33_AU24-100_AU27i-66	emotion	Verrassing	0.4763763119725166	0.8530485489409331
id-1269_AU17-33	1	1	4	13	12	train	id-1269_AU17-33	emotion	Walging	0.0909917109365606	2.494976186466374
id-1367_AU16Open-100	1	1	4	13	13	test_extra	id-1367_AU16Open-100	emotion	Geen van allen	0.0	0.7614945807526965
id-1341_AU1-33_AU15-33_AU2-66_AU4-33	1	1	4	13	14	test	id-1341_AU1-33_AU15-33_AU2-66_AU4-33	emotion	Verdrietig	0.2701065115177226	2.369886157482142
id-1361_AU7-66	1	1	4	13	15	test_extra	id-1361_AU7-66	emotion	Boos	0.34068915271155725	0.8364868381104316
id-1274_AU10Open-100_AU12-66_AU24-33_AU7-66	1	1	4	13	16	test_extra	id-1274_AU10Open-100_AU12-66_AU24-33_AU7-66	emotion	Walging	0.3570563581572175	0.6946754157033865
id-1310_AU10Open-33_AU16Open-33_AU20-66_AU26-100	1	1	4	13	17	test_extra	id-1310_AU10Open-33_AU16Open-33_AU20-66_AU26-100	emotion	Bang	0.3033270597996169	1.9781313333460275
id-1361_AU11-100_AU12-33_AU13-33	1	1	4	13	18	test_extra	id-1361_AU11-100_AU12-33_AU13-33	emotion	Blij	0.2709456538440323	1.5365292792666878
id-1366_AU14-33_AU2-100_AU26-100_AU27i-100	1	1	4	13	19	test	id-1366_AU14-33_AU2-100_AU26-100_AU27i-100	emotion	Bang	0.7143554591905761	1.2446956099656743
id-1289_AU1-100_AU12-100_AU13-100_AU17-33	1	1	4	13	20	test_extra	id-1289_AU1-100_AU12-100_AU13-100_AU17-33	emotion	Blij	0.5104323380053484	0.7111100445481497
id-1347_AU11-33_AU4-100	1	1	4	13	21	train	id-1347_AU11-33_AU4-100	emotion	Verdrietig	0.5273514268734432	0.7863706531770731
id-1310_AU12-33_AU14-33_AU22-100_AU6-100	1	1	4	13	22	test	id-1310_AU12-33_AU14-33_AU22-100_AU6-100	emotion	Blij	0.4324884383514623	0.8197615205399416
id-1306_AU15-66_AU26-66_AU5-66	1	1	4	13	23	test_extra	id-1306_AU15-66_AU26-66_AU5-66	emotion	Verrassing	0.5216216513373766	1.2197395453176796
id-1358_AU1-66_AU13-100_AU24-33_AU26-33	1	1	4	13	24	train	id-1358_AU1-66_AU13-100_AU24-33_AU26-33	emotion	Bang	0.4344981324059083	0.7778851384109657
id-1315_AU14-100_AU26-66	1	1	4	13	25	test_extra	id-1315_AU14-100_AU26-66	emotion	Bang	0.5610316144145342	1.1698065878572381
id-1361_AU13-33_AU5-66_AU6-66	1	1	4	13	26	test_extra	id-1361_AU13-33_AU5-66_AU6-66	emotion	Walging	0.4052814929993371	1.6532952872203168
id-1311_AU16Open-100_AU43-100_AU6-66_AU9-100	1	1	4	13	27	test	id-1311_AU16Open-100_AU43-100_AU6-66_AU9-100	emotion	Verrassing	0.5261338249027098	0.9530708260208484
id-1274_AU11-66_AU12-66_AU24-66_AU27i-100_AU7-100	1	1	4	13	28	test_extra	id-1274_AU11-66_AU12-66_AU24-66_AU27i-100_AU7-100	emotion	Verrassing	0.5343546105058029	5.595360692485883
id-1339_AU10Open-100_AU12-33_AU20-100_AU27i-33	1	1	4	13	29	test	id-1339_AU10Open-100_AU12-33_AU20-100_AU27i-33	emotion	Verrassing	0.35401523586821515	1.6867416963541473
id-1307_AU17-66_AU2-100_AU7-66	1	1	4	13	30	test_extra	id-1307_AU17-66_AU2-100_AU7-66	emotion	Walging	0.2669771362242672	1.6365621213581107
id-1285_AU12-66_AU20-100	1	1	4	13	31	test_extra	id-1285_AU12-66_AU20-100	emotion	Geen van allen	0.0	3.1781955082406057
id-1264_AU13-100_AU15-33_AU22-33	1	1	4	13	32	test_extra	id-1264_AU13-100_AU15-33_AU22-33	emotion	Geen van allen	0.0	0.8530657548153613
id-1358_AU14-100	1	1	4	13	33	train	id-1358_AU14-100	emotion	Blij	0.4390287524453274	0.7695879826924283
id-1323_AU10Open-100_AU2-33_AU20-66_AU4-66	1	1	4	13	34	train	id-1323_AU10Open-100_AU2-33_AU20-66_AU4-66	emotion	Bang	0.3910004411154999	1.869715909880142
id-1315_AU14-66_AU22-33_AU24-66_AU6-100	1	1	4	13	35	test_extra	id-1315_AU14-66_AU22-33_AU24-66_AU6-100	emotion	Blij	0.5303644971413534	0.8195366367399401
id-1302_AU14-66_AU27i-33	1	1	4	13	36	test_extra	id-1302_AU14-66_AU27i-33	emotion	Bang	0.6289155162849163	1.1781943008099915
id-1264_AU10Open-33_AU11-100_AU2-66_AU20-100	1	1	4	14	1	train	id-1264_AU10Open-33_AU11-100_AU2-66_AU20-100	emotion	Walging	0.3458042825779751	1.836731342643361
id-1274_AU15-33_AU16Open-100_AU17-100_AU25-100	1	1	4	14	2	test_extra	id-1274_AU15-33_AU16Open-100_AU17-100_AU25-100	emotion	Boos	0.3613378044413815	0.5445562725681157
id-1309_AU11-66_AU24-66	1	1	4	14	3	test	id-1309_AU11-66_AU24-66	emotion	Boos	0.12260105696382327	0.5696240244724322
id-1295_AU11-66_AU24-66_AU43-100_AU6-33	1	1	4	14	4	test_extra	id-1295_AU11-66_AU24-66_AU43-100_AU6-33	emotion	Walging	0.1473105140202472	0.6030411534338782
id-1285_AU10Open-66_AU17-100_AU9-66	1	1	4	14	5	test_extra	id-1285_AU10Open-66_AU17-100_AU9-66	emotion	Walging	0.415859593217528	1.0030792478437434
id-1293_AU13-100	1	1	4	14	6	test_extra	id-1293_AU13-100	emotion	Blij	0.20557672274071687	1.0279942598781415
id-1260_AU22-100_AU25-100_AU26-100	1	1	4	14	7	test	id-1260_AU22-100_AU25-100_AU26-100	emotion	Bang	0.3437505976043575	1.1121068382180963
id-1295_AU11-33_AU12-100_AU13-100_AU20-33_AU9-66	1	1	4	14	8	test	id-1295_AU11-33_AU12-100_AU13-100_AU20-33_AU9-66	emotion	Boos	0.7146976480146611	0.7198838331787556
id-1291_AU12-33_AU17-100_AU5-66	1	1	4	14	9	train	id-1291_AU12-33_AU17-100_AU5-66	emotion	Blij	0.4809631652390223	1.036291113739935
id-1280_AU15-100_AU26-66_AU43-66	1	1	4	14	10	test_extra	id-1280_AU15-100_AU26-66_AU43-66	emotion	Bang	0.6634821056814538	1.6280687582975588
id-1342_AU14-33_AU20-33_AU43-100	1	1	4	14	11	test_extra	id-1342_AU14-33_AU20-33_AU43-100	emotion	Blij	0.39035121488627	1.0282623092934955
id-1378_AU1-66_AU20-66_AU7-33	1	1	4	14	12	test	id-1378_AU1-66_AU20-66_AU7-33	emotion	Verdrietig	0.15796589163044136	0.8196724725921741
id-1362_AU13-100_AU15-66_AU43-100_AU7-33	1	1	4	14	13	train	id-1362_AU13-100_AU15-66_AU43-100_AU7-33	emotion	Verdrietig	0.6472443434103469	0.8697300971798541
id-1367_AU10Open-100_AU2-33_AU5-33_AU6-33	1	1	4	14	14	test_extra	id-1367_AU10Open-100_AU2-33_AU5-33_AU6-33	emotion	Walging	0.4955125974259185	0.8196154215347633
id-1274_AU17-33_AU20-100_AU24-100_AU9-100	1	1	4	14	15	test_extra	id-1274_AU17-33_AU20-100_AU24-100_AU9-100	emotion	Boos	0.6109690656123594	0.6529324545663258
id-1380_AU1-66_AU14-100_AU17-66_AU9-33	1	1	4	14	16	test_extra	id-1380_AU1-66_AU14-100_AU17-66_AU9-33	emotion	Walging	0.4241517113023125	0.8446759288608519
id-1274_AU22-66_AU24-100	1	1	4	14	17	test_extra	id-1274_AU22-66_AU24-100	emotion	Boos	0.6673053721852494	0.7696691823466608
id-1360_AU11-33_AU25-100	1	1	4	14	18	test_extra	id-1360_AU11-33_AU25-100	emotion	Verrassing	0.34399668858064897	0.6362644899118095
id-1279_AU1-33_AU14-33_AU26-33	1	1	4	14	19	test_extra	id-1279_AU1-33_AU14-33_AU26-33	emotion	Blij	0.4507390574284724	0.6529092115424646
id-1285_AU1-66_AU12-100_AU14-66_AU16Open-33_AU24-66	1	1	4	14	20	test_extra	id-1285_AU1-66_AU12-100_AU14-66_AU16Open-33_AU24-66	emotion	Blij	0.6216049147768868	0.8030811797316346
id-1270_AU15-33_AU22-66	1	1	4	14	21	train	id-1270_AU15-33_AU22-66	emotion	Verdrietig	0.4108341359294692	2.062088153242257
id-1260_AU24-66_AU26-66_AU5-33_AU6-66	1	1	4	14	22	test_extra	id-1260_AU24-66_AU26-66_AU5-33_AU6-66	emotion	Bang	0.3892674863428233	0.8030413345477427
id-1356_AU15-100	1	1	4	14	23	train	id-1356_AU15-100	emotion	Verrassing	0.2893908160294319	1.0866542180656324
id-1376_AU10Open-100_AU11-100_AU16Open-66_AU22-33	1	1	4	14	24	test_extra	id-1376_AU10Open-100_AU11-100_AU16Open-66_AU22-33	emotion	Boos	0.3292988270669011	1.1114442611160484
id-1376_AU1-100_AU13-33_AU14-33_AU27i-66	1	1	4	14	25	test	id-1376_AU1-100_AU13-33_AU14-33_AU27i-66	emotion	Bang	0.5138896856946987	1.144820941179205
id-1294_AU13-33_AU26-33_AU27i-100_AU9-66	1	1	4	14	26	test_extra	id-1294_AU13-33_AU26-33_AU27i-100_AU9-66	emotion	Bang	0.6971255533770258	0.7113026296010503
id-1291_AU1-100_AU14-100_AU24-66	1	1	4	14	27	test_extra	id-1291_AU1-100_AU14-100_AU24-66	emotion	Blij	0.6121637350855097	0.6613757092891319
id-1344_AU12-66_AU22-66_AU26-100_AU27i-33	1	1	4	14	28	test_extra	id-1344_AU12-66_AU22-66_AU26-100_AU27i-33	emotion	Verrassing	0.5162854342776764	1.0113238803651257
id-1295_AU24-100_AU27i-33	1	1	4	14	29	test_extra	id-1295_AU24-100_AU27i-33	emotion	Verrassing	0.6063604771870499	0.8947133289984777
id-1264_AU14-33_AU16Open-100_AU20-33	1	1	4	14	30	train	id-1264_AU14-33_AU16Open-100_AU20-33	emotion	Blij	0.40072054968623627	0.6861588096189735
id-1377_AU24-100_AU26-33_AU43-66	1	1	4	14	31	test_extra	id-1377_AU24-100_AU26-33_AU43-66	emotion	Geen van allen	0.0	0.8029079135549182
id-1296_AU14-66_AU4-66_AU43-100_AU6-66	1	1	4	14	32	test_extra	id-1296_AU14-66_AU4-66_AU43-100_AU6-66	emotion	Verdrietig	0.565657824564953	0.9446115728524092
id-1296_AU1-33_AU14-66_AU15-66_AU5-100	1	1	4	14	33	test_extra	id-1296_AU1-33_AU14-66_AU15-66_AU5-100	emotion	Verrassing	0.32474854203574205	0.6947315611887461
id-1378_AU26-66_AU4-33_AU43-66	1	1	4	14	34	test_extra	id-1378_AU26-66_AU4-33_AU43-66	emotion	Geen van allen	0.0	1.9614706132715585
id-1362_AU5-33_AU6-66_AU7-33	1	1	4	14	35	test	id-1362_AU5-33_AU6-66_AU7-33	emotion	Boos	0.4675310791763638	0.5946676277808365
id-1356_AU6-33	1	1	4	14	36	test	id-1356_AU6-33	emotion	Walging	0.3651219473384684	1.1779878303150326
id-1355_AU13-66_AU14-100_AU15-100_AU7-33	1	1	4	15	1	test	id-1355_AU13-66_AU14-100_AU15-100_AU7-33	valence	0.07608851331996565		1.418739974559685
id-1355_AU13-66_AU14-100_AU15-100_AU7-33	1	1	4	15	1	test	id-1355_AU13-66_AU14-100_AU15-100_AU7-33	arousal	-0.2663097966198797		1.418739974559685
id-1361_AU13-66_AU6-33	1	1	4	15	2	train	id-1361_AU13-66_AU6-33	valence	0.02717446904284487		0.8269457278420305
id-1361_AU13-66_AU6-33	1	1	4	15	2	train	id-1361_AU13-66_AU6-33	arousal	-0.5570766153783199		0.8269457278420305
id-1341_AU14-33_AU4-100_AU7-66	1	1	4	15	3	train	id-1341_AU14-33_AU4-100_AU7-66	valence	-0.057066384989974225		1.0020544418021018
id-1341_AU14-33_AU4-100_AU7-66	1	1	4	15	3	train	id-1341_AU14-33_AU4-100_AU7-66	arousal	-0.15761192044850025		1.0020544418021018
id-1344_AU17-33_AU6-33_AU7-33	1	1	4	15	4	test_extra	id-1344_AU17-33_AU6-33_AU7-33	valence	-0.1440246859270778		0.5935688666640999
id-1344_AU17-33_AU6-33_AU7-33	1	1	4	15	4	test_extra	id-1344_AU17-33_AU6-33_AU7-33	arousal	-0.6739268322625528		0.5935688666640999
id-1309_AU10Open-100_AU2-100_AU27i-33	1	1	4	15	5	test_extra	id-1309_AU10Open-100_AU2-100_AU27i-33	valence	-0.2798970311413021		1.1769983415952083
