	rep	session	run	block	trial	data_split	trial_type	rating_type	rating	rating_intensity	rating_RT
id-1296_AU12-66_AU6-66	1	1	1	1	1	train	id-1296_AU12-66_AU6-66	emotion	Boos	0.15728401993213206	6.086874679466972
id-1370_AU2-33_AU27i-66	1	1	1	1	2	test_extra	id-1370_AU2-33_AU27i-66	emotion	Blij	0.29772266811266096	1.1612516266247894
id-1310_AU15-66_AU25-100_AU4-100_AU43-33	1	1	1	1	3	train	id-1310_AU15-66_AU25-100_AU4-100_AU43-33	emotion	Boos	0.20286670279441474	5.578642319386972
id-1377_AU13-66_AU14-33_AU22-33_AU7-100_AU9-66	1	1	1	1	4	train	id-1377_AU13-66_AU14-33_AU22-33_AU7-100_AU9-66	emotion	Blij	0.4814053313942575	1.9698117114585327
id-1274_AU16Open-33_AU27i-100_AU6-100	1	1	1	1	5	test_extra	id-1274_AU16Open-33_AU27i-100_AU6-100	emotion	Boos	0.2300459396367321	3.711716318410709
id-1274_AU14-100_AU25-100_AU27i-66_AU5-33	1	1	1	1	6	test_extra	id-1274_AU14-100_AU25-100_AU27i-66_AU5-33	emotion	Bang	0.18427026420083328	1.8031559619071231
id-1376_AU2-33	1	1	1	1	7	test_extra	id-1376_AU2-33	emotion	Blij	0.2410414435959063	6.1118372418116
id-1355_AU10Open-100_AU2-33_AU20-66	1	1	1	1	8	test_extra	id-1355_AU10Open-100_AU2-33_AU20-66	emotion	Bang	0.5226431109873287	1.4364522776675133
id-1378_AU1-66_AU20-66_AU7-33	1	1	1	1	9	test	id-1378_AU1-66_AU20-66_AU7-33	emotion	Bang	0.1597413296333038	6.128524127780337
id-1377_AU17-66_AU24-33_AU4-100	1	1	1	1	10	test	id-1377_AU17-66_AU24-33_AU4-100	emotion	Verdrietig	0.17598107108115868	2.0113793568723395
id-1266_AU15-33_AU5-66_AU9-33	1	1	1	1	11	test_extra	id-1266_AU15-33_AU5-66_AU9-33	emotion	Boos	0.18717957657350406	2.0364222128380334
id-1367_AU17-66	1	1	1	1	12	test_extra	id-1367_AU17-66	emotion	Verdrietig	0.12982506962479293	5.011821575499654
id-1273_AU1-33_AU25-100_AU4-33	1	1	1	1	13	train	id-1273_AU1-33_AU25-100_AU4-33	emotion	Geen van allen	0.0	3.2949571078115696
id-1296_AU13-66_AU14-100_AU17-66	1	1	1	1	14	test_extra	id-1296_AU13-66_AU14-100_AU17-66	emotion	Verdrietig	0.1806861702736199	4.978368415508157
id-1269_AU11-100_AU13-33_AU25-100	1	1	1	1	15	test_extra	id-1269_AU11-100_AU13-33_AU25-100	emotion	Boos	0.26702349045239426	2.161506392851152
id-1290_AU24-33_AU25-66_AU4-66	1	1	1	1	16	test_extra	id-1290_AU24-33_AU25-66_AU4-66	emotion	Boos	0.2573793882667574	1.0445976731150497
id-1358_AU15-66_AU2-33_AU26-66	1	1	1	1	17	test_extra	id-1358_AU15-66_AU2-33_AU26-66	emotion	Verrassing	0.3612235754493962	1.3281069028064394
id-1344_AU1-33_AU11-33_AU4-33_AU7-66	1	1	1	1	18	train	id-1344_AU1-33_AU11-33_AU4-33_AU7-66	emotion	Boos	0.2294754672856336	1.9363048211489515
id-1270_AU15-33_AU22-66	1	1	1	1	19	train	id-1270_AU15-33_AU22-66	emotion	Geen van allen	0.0	4.903348817525512
id-1376_AU1-33_AU5-100_AU7-66	1	1	1	1	20	train	id-1376_AU1-33_AU5-100_AU7-66	emotion	Verrassing	0.2470494405408244	2.4615352804435133
id-1323_AU12-66_AU16Open-33_AU7-66_AU9-100	1	1	1	1	21	test	id-1323_AU12-66_AU16Open-33_AU7-66_AU9-100	emotion	Boos	0.4657297042870983	1.1197217131757498
id-1290_AU13-100_AU20-33_AU25-33	1	1	1	1	22	train	id-1290_AU13-100_AU20-33_AU25-33	emotion	Boos	0.10249626249153264	1.0280605075822675
id-1260_AU12-66_AU25-33	1	1	1	1	23	test	id-1260_AU12-66_AU25-33	emotion	Bang	0.3593543238891886	1.236408267103343
id-1291_AU2-66_AU43-100_AU9-100	1	1	1	1	24	train	id-1291_AU2-66_AU43-100_AU9-100	emotion	Geen van allen	0.0	2.028198153790072
id-1297_AU20-33_AU22-33_AU26-66	1	1	1	1	25	test_extra	id-1297_AU20-33_AU22-33_AU26-66	emotion	Bang	0.5480075183247736	2.4863867598837714
id-1361_AU16Open-33_AU24-66_AU25-100	1	1	1	1	26	train	id-1361_AU16Open-33_AU24-66_AU25-100	emotion	Boos	0.19934114020017374	2.5199458712327214
id-1310_AU2-100_AU25-66_AU6-66_AU7-100	1	1	1	1	27	test_extra	id-1310_AU2-100_AU25-66_AU6-66_AU7-100	emotion	Boos	0.3832048329207994	1.0696471699066024
id-1318_AU22-100_AU26-100_AU27i-33_AU4-33_AU6-33	1	1	1	1	28	test	id-1318_AU22-100_AU26-100_AU27i-33_AU4-33_AU6-33	emotion	Verrassing	0.4619675891917081	3.586790310793732
id-1347_AU4-33_AU43-66_AU9-66	1	1	1	1	29	train	id-1347_AU4-33_AU43-66_AU9-66	emotion	Geen van allen	0.0	1.0029361505730776
id-1295_AU11-66_AU13-66_AU17-33_AU9-66	1	1	1	1	30	test_extra	id-1295_AU11-66_AU13-66_AU17-33_AU9-66	emotion	Boos	0.24251793844601424	1.3531177620661765
id-1358_AU12-33_AU25-33_AU6-33_AU9-33	1	1	1	1	31	train	id-1358_AU12-33_AU25-33_AU6-33_AU9-33	emotion	Walging	0.17756144996866938	1.844781865474488
id-1358_AU15-33_AU22-100	1	1	1	1	32	train	id-1358_AU15-33_AU22-100	emotion	Geen van allen	0.0	1.4698269551722658
id-1373_AU11-33_AU13-100_AU16Open-66_AU43-33	1	1	1	1	33	test	id-1373_AU11-33_AU13-100_AU16Open-66_AU43-33	emotion	Geen van allen	0.0	1.4949407472317944
id-1354_AU1-66_AU10Open-100	1	1	1	1	34	test	id-1354_AU1-66_AU10Open-100	emotion	Walging	0.19826856739645024	2.3527507055118804
id-1295_AU12-33_AU2-66_AU27i-66	1	1	1	1	35	test_extra	id-1295_AU12-33_AU2-66_AU27i-66	emotion	Verrassing	0.15915573339851682	1.5530389173522965
id-1290_AU22-33	1	1	1	1	36	test_extra	id-1290_AU22-33	emotion	Geen van allen	0.0	1.2446899805936482
id-1362_AU11-100_AU17-33_AU43-66	1	1	1	2	1	train	id-1362_AU11-100_AU17-33_AU43-66	emotion	Blij	0.1850570070390786	2.178186034283044
id-1280_AU11-33_AU17-66_AU2-66_AU26-66_AU9-66	1	1	1	2	2	test	id-1280_AU11-33_AU17-66_AU2-66_AU26-66_AU9-66	emotion	Bang	0.29845797511545497	2.5448184805727583
id-1270_AU11-100_AU15-100_AU20-66_AU7-66	1	1	1	2	3	test	id-1270_AU11-100_AU15-100_AU20-66_AU7-66	emotion	Walging	0.32128996061737025	1.5366560000916252
id-1291_AU14-100_AU15-66	1	1	1	2	4	train	id-1291_AU14-100_AU15-66	emotion	Blij	0.08387160563339657	4.695040601103301
id-1366_AU5-100	1	1	1	2	5	test_extra	id-1366_AU5-100	emotion	Verrassing	0.21048563879346285	1.4947336742093285
id-1289_AU2-100	1	1	1	2	6	train	id-1289_AU2-100	emotion	Verrassing	0.2209083876381873	1.5948154469228941
id-1310_AU13-66	1	1	1	2	7	train	id-1310_AU13-66	emotion	Boos	0.390540650675816	2.2447799335977834
id-1291_AU14-33_AU7-33	1	1	1	2	8	test_extra	id-1291_AU14-33_AU7-33	emotion	Blij	0.15485482265292486	1.0451298447469526
id-1289_AU11-100_AU7-100	1	1	1	2	9	test_extra	id-1289_AU11-100_AU7-100	emotion	Walging	0.20557672274071687	1.1948620534458314
id-1380_AU1-100_AU15-66_AU7-66	1	1	1	2	10	test_extra	id-1380_AU1-100_AU15-66_AU7-66	emotion	Geen van allen	0.0	5.336918373082425
id-1373_AU7-66	1	1	1	2	11	test_extra	id-1373_AU7-66	emotion	Bang	0.41297961410919903	1.536455869750171
id-1345_AU10Open-66_AU16Open-66_AU22-33_AU43-33	1	1	1	2	12	test_extra	id-1345_AU10Open-66_AU16Open-66_AU22-33_AU43-33	emotion	Geen van allen	0.0	1.878170126486566
id-1370_AU26-100_AU4-33_AU6-33	1	1	1	2	13	test_extra	id-1370_AU26-100_AU4-33_AU6-33	emotion	Verrassing	0.2958249583073203	1.0445566207372394
id-1260_AU12-66_AU20-100_AU22-66_AU43-66	1	1	1	2	14	train	id-1260_AU12-66_AU20-100_AU22-66_AU43-66	emotion	Blij	0.2899084438343087	1.1946232855725611
id-1266_AU13-66_AU17-100_AU2-100_AU9-33	1	1	1	2	15	test	id-1266_AU13-66_AU17-100_AU2-100_AU9-33	emotion	Boos	0.1877897668548778	1.778068733150576
id-1373_AU5-33	1	1	1	2	16	train	id-1373_AU5-33	emotion	Bang	0.377896554549386	3.0114527078117126
id-1323_AU11-66_AU4-33_AU5-100_AU9-66	1	1	1	2	17	train	id-1323_AU11-66_AU4-33_AU5-100_AU9-66	emotion	Bang	0.1421460634668622	11.904263440352226
id-1280_AU10Open-100_AU14-33_AU24-100_AU27i-33	1	1	1	2	18	train	id-1280_AU10Open-100_AU14-33_AU24-100_AU27i-33	emotion	Verrassing	0.4846772906428026	1.5280848069673991
id-1373_AU22-66_AU4-100	1	1	1	2	19	train	id-1373_AU22-66_AU4-100	emotion	Boos	0.2897102727659438	1.3697412583337611
id-1307_AU16Open-66_AU17-66_AU43-33	1	1	1	2	20	test_extra	id-1307_AU16Open-66_AU17-66_AU43-33	emotion	Blij	0.16136930978873235	2.1447026887194625
id-1273_AU11-33_AU14-33_AU26-100	1	1	1	2	21	train	id-1273_AU11-33_AU14-33_AU26-100	emotion	Blij	0.3416292969389492	1.5030171988332768
id-1296_AU1-66_AU11-33	1	1	1	2	22	test_extra	id-1296_AU1-66_AU11-33	emotion	Walging	0.14833324370160436	1.2033405768643206
id-1354_AU15-33_AU17-66_AU25-100_AU9-33	1	1	1	2	23	train	id-1354_AU15-33_AU17-66_AU25-100_AU9-33	emotion	Walging	0.2665713251675786	1.4365618512933906
id-1294_AU13-66_AU15-33_AU24-100_AU4-66	1	1	1	2	24	test_extra	id-1294_AU13-66_AU15-33_AU24-100_AU4-66	emotion	Verdrietig	0.1916395249607131	1.8698401160818316
id-1289_AU17-33_AU26-66	1	1	1	2	25	test	id-1289_AU17-33_AU26-66	emotion	Verrassing	0.10092329187416177	2.9450027936745755
id-1269_AU10Open-66_AU20-66_AU26-66_AU43-66	1	1	1	2	26	test	id-1269_AU10Open-66_AU20-66_AU26-66_AU43-66	emotion	Geen van allen	0.0	1.2531386202958856
id-1294_AU16Open-66_AU7-100	1	1	1	2	27	train	id-1294_AU16Open-66_AU7-100	emotion	Blij	0.2668496365400732	1.7199138141550063
id-1339_AU12-33_AU14-100_AU16Open-33	1	1	1	2	28	test_extra	id-1339_AU12-33_AU14-100_AU16Open-33	emotion	Blij	0.1657824799359239	1.0196837095409137
id-1356_AU6-33	1	1	1	2	29	test	id-1356_AU6-33	emotion	Verdrietig	0.14917768492484373	2.203237945920137
id-1274_AU10Open-100_AU12-66_AU24-33_AU7-66	1	1	1	2	30	train	id-1274_AU10Open-100_AU12-66_AU24-33_AU7-66	emotion	Boos	0.4454663556421928	2.203285639123351
id-1295_AU11-66_AU24-66_AU43-100_AU6-33	1	1	1	2	31	train	id-1295_AU11-66_AU24-66_AU43-100_AU6-33	emotion	Boos	0.14866810411242726	1.2196851584485555
id-1264_AU22-100_AU26-33	1	1	1	2	32	train	id-1264_AU22-100_AU26-33	emotion	Verrassing	0.34885484823527585	1.3864281443024993
id-1362_AU5-33_AU6-66_AU7-33	1	1	1	2	33	test	id-1362_AU5-33_AU6-66_AU7-33	emotion	Boos	0.08826612806485179	2.269991526909962
id-1297_AU10Open-100_AU6-100	1	1	1	2	34	train	id-1297_AU10Open-100_AU6-100	emotion	Boos	0.5321934303349461	2.9785422844020104
id-1335_AU11-66_AU17-66_AU25-66_AU6-33	1	1	1	2	35	test_extra	id-1335_AU11-66_AU17-66_AU25-66_AU6-33	emotion	Blij	0.14385011700846442	1.0530164291012625
id-1358_AU1-66_AU13-100_AU24-33_AU26-33	1	1	1	2	36	test_extra	id-1358_AU1-66_AU13-100_AU24-33_AU26-33	emotion	Verrassing	0.4401892483591491	1.895173055392661
id-1273_AU10Open-66_AU12-66_AU25-66	1	1	1	3	1	test_extra	id-1273_AU10Open-66_AU12-66_AU25-66	valence	0.3369634161312764		4.81040261213866
id-1273_AU10Open-66_AU12-66_AU25-66	1	1	1	3	1	test_extra	id-1273_AU10Open-66_AU12-66_AU25-66	arousal	-0.29348426566272456		4.81040261213866
id-1296_AU11-66_AU26-66_AU4-66_AU6-100	1	1	1	3	2	test_extra	id-1296_AU11-66_AU26-66_AU4-66_AU6-100	valence	-0.36685533207840576		2.302123766277873
id-1296_AU11-66_AU26-66_AU4-66_AU6-100	1	1	1	3	2	test_extra	id-1296_AU11-66_AU26-66_AU4-66_AU6-100	arousal	0.2608749028113107		2.302123766277873
id-1273_AU12-100_AU16Open-33_AU20-100_AU22-66_AU5-66	1	1	1	3	3	test	id-1273_AU12-100_AU16Open-33_AU20-100_AU22-66_AU5-66	valence	0.19565617710848307		3.5358180486173296
id-1273_AU12-100_AU16Open-33_AU20-100_AU22-66_AU5-66	1	1	1	3	3	test	id-1273_AU12-100_AU16Open-33_AU20-100_AU22-66_AU5-66	arousal	-0.36685533207840576		3.5358180486173296
id-1376_AU12-33_AU17-100_AU22-100_AU26-100	1	1	1	3	4	train	id-1376_AU12-33_AU17-100_AU22-100_AU26-100	valence	0.1875038363956296		2.868924587687616
id-1376_AU12-33_AU17-100_AU22-100_AU26-100	1	1	1	3	4	train	id-1376_AU12-33_AU17-100_AU22-100_AU26-100	arousal	0.13587234521422434		2.868924587687616
id-1273_AU1-33_AU13-33_AU26-33	1	1	1	3	5	test	id-1273_AU1-33_AU13-33_AU26-33	valence	0.50272767729263		2.7689164677690314
id-1273_AU1-33_AU13-33_AU26-33	1	1	1	3	5	test	id-1273_AU1-33_AU13-33_AU26-33	arousal	0.4755532082497852		2.7689164677690314
id-1279_AU1-100_AU13-66_AU22-100_AU27i-100	1	1	1	3	6	test_extra	id-1279_AU1-100_AU13-66_AU22-100_AU27i-100	valence	0.10869787617137948		2.5855339872937293
id-1279_AU1-100_AU13-66_AU22-100_AU27i-100	1	1	1	3	6	test_extra	id-1279_AU1-100_AU13-66_AU22-100_AU27i-100	arousal	0.5299021463354749		2.5855339872937293
id-1266_AU1-33_AU10Open-100_AU11-66_AU12-100_AU14-33	1	1	1	3	7	train	id-1266_AU1-33_AU10Open-100_AU11-66_AU12-100_AU14-33	valence	-0.16032936735278475		1.4188335630960864
id-1266_AU1-33_AU10Open-100_AU11-66_AU12-100_AU14-33	1	1	1	3	7	train	id-1266_AU1-33_AU10Open-100_AU11-66_AU12-100_AU14-33	arousal	0.2500051151941728		1.4188335630960864
id-1260_AU22-100_AU25-100_AU26-100	1	1	1	3	8	test	id-1260_AU22-100_AU25-100_AU26-100	valence	-0.12228511069280193		2.810532410097494
id-1260_AU22-100_AU25-100_AU26-100	1	1	1	3	8	test	id-1260_AU22-100_AU25-100_AU26-100	arousal	-0.5842510844211647		2.810532410097494
id-1279_AU11-33_AU12-100_AU15-33_AU26-66_AU43-100	1	1	1	3	9	test_extra	id-1279_AU11-33_AU12-100_AU15-33_AU26-66_AU43-100	valence	0.3722902258869748		1.6354663565202827
id-1279_AU11-33_AU12-100_AU15-33_AU26-66_AU43-100	1	1	1	3	9	test_extra	id-1279_AU11-33_AU12-100_AU15-33_AU26-66_AU43-100	arousal	0.7799072615296476		1.6354663565202827
id-1306_AU16Open-66_AU2-33_AU5-33_AU6-100	1	1	1	3	10	test_extra	id-1306_AU16Open-66_AU2-33_AU5-33_AU6-100	valence	-0.5869685313254491		1.068614219638221
id-1306_AU16Open-66_AU2-33_AU5-33_AU6-100	1	1	1	3	10	test_extra	id-1306_AU16Open-66_AU2-33_AU5-33_AU6-100	arousal	0.19837362401276756		1.068614219638221
id-1295_AU10Open-33_AU11-66_AU17-33_AU5-100	1	1	1	3	11	test_extra	id-1295_AU10Open-33_AU11-66_AU17-33_AU5-100	valence	-0.6549047039325613		3.043864163719263
id-1295_AU10Open-33_AU11-66_AU17-33_AU5-100	1	1	1	3	11	test_extra	id-1295_AU10Open-33_AU11-66_AU17-33_AU5-100	arousal	0.7962119429553548		3.043864163719263
id-1341_AU14-33_AU4-100_AU7-66	1	1	1	3	12	test_extra	id-1341_AU14-33_AU4-100_AU7-66	valence	-0.22283064615132792		2.285526531457436
id-1341_AU14-33_AU4-100_AU7-66	1	1	1	3	12	test_extra	id-1341_AU14-33_AU4-100_AU7-66	arousal	0.1847863894913451		2.285526531457436
id-1296_AU22-33_AU24-100_AU7-33_AU9-100	1	1	1	3	13	test_extra	id-1296_AU22-33_AU24-100_AU7-33_AU9-100	valence	-0.21739575234275896		2.102098470768852
id-1296_AU22-33_AU24-100_AU7-33_AU9-100	1	1	1	3	13	test_extra	id-1296_AU22-33_AU24-100_AU7-33_AU9-100	arousal	-0.15489447354421576		2.102098470768852
id-1362_AU13-100_AU15-66_AU43-100_AU7-33	1	1	1	3	14	test_extra	id-1362_AU13-100_AU15-66_AU43-100_AU7-33	valence	0.05978383189425871		5.752831180246631
id-1362_AU13-100_AU15-66_AU43-100_AU7-33	1	1	1	3	14	test_extra	id-1362_AU13-100_AU15-66_AU43-100_AU7-33	arousal	-0.2418527744813193		5.752831180246631
id-1302_AU15-100_AU4-100_AU5-66_AU9-100	1	1	1	3	15	test_extra	id-1302_AU15-100_AU4-100_AU5-66_AU9-100	valence	-0.6712093853582682		3.327261706794616
id-1302_AU15-100_AU4-100_AU5-66_AU9-100	1	1	1	3	15	test_extra	id-1302_AU15-100_AU4-100_AU5-66_AU9-100	arousal	-0.11413276997994845		3.327261706794616
id-1307_AU10Open-66_AU17-33_AU22-33_AU9-100	1	1	1	3	16	test	id-1307_AU10Open-66_AU17-33_AU22-33_AU9-100	valence	-0.6847966198796908		3.727294488326152
id-1307_AU10Open-66_AU17-33_AU22-33_AU9-100	1	1	1	3	16	test	id-1307_AU10Open-66_AU17-33_AU22-33_AU9-100	arousal	0.2472876682898883		3.727294488326152
id-1342_AU1-100_AU14-100_AU15-66_AU5-100_AU7-100	1	1	1	3	17	test	id-1342_AU1-100_AU14-100_AU15-66_AU5-100_AU7-100	valence	-0.4538136330155093		1.7770777408272806
id-1342_AU1-100_AU14-100_AU15-66_AU5-100_AU7-100	1	1	1	3	17	test	id-1342_AU1-100_AU14-100_AU15-66_AU5-100_AU7-100	arousal	0.19565617710848307		1.7770777408272806
id-1377_AU10Open-33_AU13-33_AU24-100_AU6-66	1	1	1	3	18	test_extra	id-1377_AU10Open-33_AU13-33_AU24-100_AU6-66	valence	-0.14945957973564675		1.9188355251581013
id-1377_AU10Open-33_AU13-33_AU24-100_AU6-66	1	1	1	3	18	test_extra	id-1377_AU10Open-33_AU13-33_AU24-100_AU6-66	arousal	-0.1440246859270778		1.9188355251581013
id-1376_AU16Open-100_AU43-66_AU5-33	1	1	1	3	19	test_extra	id-1376_AU16Open-100_AU43-66_AU5-33	valence	-0.2717446904284487		4.3773027440797705
id-1376_AU16Open-100_AU43-66_AU5-33	1	1	1	3	19	test_extra	id-1376_AU16Open-100_AU43-66_AU5-33	arousal	-0.1847863894913451		4.3773027440797705
id-1367_AU25-66_AU4-66_AU6-33	1	1	1	3	20	test	id-1367_AU25-66_AU4-66_AU6-33	valence	-0.2201131992470434		2.1854969797827835
id-1367_AU25-66_AU4-66_AU6-33	1	1	1	3	20	test	id-1367_AU25-66_AU4-66_AU6-33	arousal	0.17391660187420716		2.1854969797827835
id-1360_AU14-33_AU5-66	1	1	1	3	21	test_extra	id-1360_AU14-33_AU5-66	valence	0.1847863894913451		1.6520895509324869
id-1360_AU14-33_AU5-66	1	1	1	3	21	test_extra	id-1360_AU14-33_AU5-66	arousal	-0.14674213283136228		1.6520895509324869
id-1290_AU11-100_AU15-33	1	1	1	3	22	train	id-1290_AU11-100_AU15-33	valence	-0.4972927834840611		1.6271387609604062
id-1290_AU11-100_AU15-33	1	1	1	3	22	train	id-1290_AU11-100_AU15-33	arousal	0.17935149568277614		1.6271387609604062
id-1344_AU16Open-33	1	1	1	3	23	test_extra	id-1344_AU16Open-33	valence	-0.1250025575970864		3.1272007923107594
id-1344_AU16Open-33	1	1	1	3	23	test_extra	id-1344_AU16Open-33	arousal	-0.6657744915496994		3.1272007923107594
id-1362_AU16Open-100_AU17-100_AU25-33_AU43-100	1	1	1	3	24	test_extra	id-1362_AU16Open-100_AU17-100_AU25-33_AU43-100	valence	0.11956766378851742		1.9353479385217724
id-1362_AU16Open-100_AU17-100_AU25-33_AU43-100	1	1	1	3	24	test_extra	id-1362_AU16Open-100_AU17-100_AU25-33_AU43-100	arousal	-0.7989293898596391		1.9353479385217724
id-1341_AU14-66_AU2-100_AU27i-66_AU43-100	1	1	1	3	25	test_extra	id-1341_AU14-66_AU2-100_AU27i-66_AU43-100	valence	0.07880596022425011		2.9522047692603337
id-1341_AU14-66_AU2-100_AU27i-66_AU43-100	1	1	1	3	25	test_extra	id-1341_AU14-66_AU2-100_AU27i-66_AU43-100	arousal	0.3505506506526989		2.9522047692603337
id-1335_AU43-66_AU5-66	1	1	1	3	26	test	id-1335_AU43-66_AU5-66	valence	0.13587234521422434		5.794170320881674
id-1335_AU43-66_AU5-66	1	1	1	3	26	test	id-1335_AU43-66_AU5-66	arousal	-0.3532680975569833		5.794170320881674
id-1341_AU12-66_AU13-33_AU14-100_AU15-33_AU22-100	1	1	1	3	27	test_extra	id-1341_AU12-66_AU13-33_AU14-100_AU15-33_AU22-100	valence	0.3206587347055695		2.635960796186737
id-1341_AU12-66_AU13-33_AU14-100_AU15-33_AU22-100	1	1	1	3	27	test_extra	id-1341_AU12-66_AU13-33_AU14-100_AU15-33_AU22-100	arousal	-0.2092434116299055		2.635960796186737
id-1297_AU1-100_AU11-33_AU14-33_AU24-66	1	1	1	3	28	test_extra	id-1297_AU1-100_AU11-33_AU14-33_AU24-66	valence	-0.31522384089700045		4.686045300695241
id-1297_AU1-100_AU11-33_AU14-33_AU24-66	1	1	1	3	28	test_extra	id-1297_AU1-100_AU11-33_AU14-33_AU24-66	arousal	-0.19565617710848307		4.686045300695241
id-1345_AU1-100_AU20-33_AU4-33_AU7-33_AU9-33	1	1	1	3	29	test_extra	id-1345_AU1-100_AU20-33_AU4-33_AU7-33_AU9-33	valence	-0.40489958873838855		3.010492504771719
id-1345_AU1-100_AU20-33_AU4-33_AU7-33_AU9-33	1	1	1	3	29	test_extra	id-1345_AU1-100_AU20-33_AU4-33_AU7-33_AU9-33	arousal	0.15761192044850025		3.010492504771719
id-1367_AU1-66_AU10Open-66_AU15-33_AU6-100	1	1	1	3	30	test_extra	id-1367_AU1-66_AU10Open-66_AU15-33_AU6-100	valence	-0.4619659737283627		1.885432473215588
id-1367_AU1-66_AU10Open-66_AU15-33_AU6-100	1	1	1	3	30	test_extra	id-1367_AU1-66_AU10Open-66_AU15-33_AU6-100	arousal	-0.1875038363956296		1.885432473215588
id-1361_AU10Open-33_AU11-100_AU13-66_AU2-100	1	1	1	3	31	test_extra	id-1361_AU10Open-33_AU11-100_AU13-66_AU2-100	valence	-0.4320740577812335		1.4190789717949883
id-1361_AU10Open-33_AU11-100_AU13-66_AU2-100	1	1	1	3	31	test_extra	id-1361_AU10Open-33_AU11-100_AU13-66_AU2-100	arousal	-0.19837362401276756		1.4190789717949883
id-1297_AU13-66_AU7-33_AU9-33	1	1	1	3	32	train	id-1297_AU13-66_AU7-33_AU9-33	valence	-0.5217498056226214		1.1186978185792211
id-1297_AU13-66_AU7-33_AU9-33	1	1	1	3	32	train	id-1297_AU13-66_AU7-33_AU9-33	arousal	-0.1847863894913451		1.1186978185792211
id-1339_AU20-100_AU43-33_AU9-100	1	1	1	3	33	test_extra	id-1339_AU20-100_AU43-33_AU9-100	valence	0.21196085853419		3.935627155060956
id-1339_AU20-100_AU43-33_AU9-100	1	1	1	3	33	test_extra	id-1339_AU20-100_AU43-33_AU9-100	arousal	0.17391660187420716		3.935627155060956
id-1264_AU1-100_AU4-100	1	1	1	3	34	test_extra	id-1264_AU1-100_AU4-100	valence	-0.3695727789826902		1.2852726707983493
id-1264_AU1-100_AU4-100	1	1	1	3	34	test_extra	id-1264_AU1-100_AU4-100	arousal	0.24457022138560386		1.2852726707983493
id-1360_AU10Open-66_AU20-33	1	1	1	3	35	test_extra	id-1360_AU10Open-66_AU20-33	valence	-0.15489447354421576		3.068840611426822
id-1360_AU10Open-66_AU20-33	1	1	1	3	35	test_extra	id-1360_AU10Open-66_AU20-33	arousal	-0.4157693763555265		3.068840611426822
id-1323_AU10Open-100_AU2-33_AU20-66_AU4-66	1	1	1	3	36	test_extra	id-1323_AU10Open-100_AU2-33_AU20-66_AU4-66	valence	-0.1875038363956296		1.0272110855908068
id-1323_AU10Open-100_AU2-33_AU20-66_AU4-66	1	1	1	3	36	test_extra	id-1323_AU10Open-100_AU2-33_AU20-66_AU4-66	arousal	-0.4701183144412162		1.0272110855908068
id-1291_AU20-33_AU24-100_AU25-33_AU27i-100	1	1	1	4	1	test	id-1291_AU20-33_AU24-100_AU25-33_AU27i-100	emotion	Verrassing	0.1252298742372393	5.187046103329067
id-1311_AU11-100_AU16Open-33_AU24-100_AU5-100	1	1	1	4	2	test_extra	id-1311_AU11-100_AU16Open-33_AU24-100_AU5-100	emotion	Walging	0.3829671534199231	0.8863449830523678
id-1295_AU15-66_AU17-33_AU20-33_AU25-66	1	1	1	4	3	test_extra	id-1295_AU15-66_AU17-33_AU20-33_AU25-66	emotion	Walging	0.19034680821192607	0.8111856258724401
id-1380_AU25-33_AU4-66_AU5-100	1	1	1	4	4	train	id-1380_AU25-33_AU4-66_AU5-100	emotion	Verrassing	0.15171335513440554	1.5364434936664106
id-1311_AU10Open-66_AU16Open-33_AU25-100	1	1	1	4	5	test_extra	id-1311_AU10Open-66_AU16Open-33_AU25-100	emotion	Boos	0.36501798361565	1.077901414525968
id-1354_AU11-100_AU15-100_AU4-66_AU9-66	1	1	1	4	6	test_extra	id-1354_AU11-100_AU15-100_AU4-66_AU9-66	emotion	Walging	0.47754754051626297	0.8611901386152567
id-1311_AU13-33_AU17-66_AU26-33_AU6-100	1	1	1	4	7	test_extra	id-1311_AU13-33_AU17-66_AU26-33_AU6-100	emotion	Blij	0.4896044185350046	1.0946704052503264
id-1274_AU11-66_AU12-66_AU24-66_AU27i-100_AU7-100	1	1	1	4	8	train	id-1274_AU11-66_AU12-66_AU24-66_AU27i-100_AU7-100	emotion	Boos	0.455450320523035	1.3199607225342334
id-1266_AU11-66_AU17-100_AU7-33	1	1	1	4	9	train	id-1266_AU11-66_AU17-100_AU7-33	emotion	Blij	0.03396945169203292	3.269658580052692
id-1358_AU12-66_AU24-33_AU26-100_AU7-33	1	1	1	4	10	test_extra	id-1358_AU12-66_AU24-33_AU26-100_AU7-33	emotion	Bang	0.3253209060335575	1.6613731235515845
id-1309_AU11-66_AU24-66	1	1	1	4	11	test	id-1309_AU11-66_AU24-66	emotion	Verdrietig	0.0633752856097372	1.0113805642949956
id-1280_AU11-33_AU16Open-66_AU25-66_AU7-33	1	1	1	4	12	test_extra	id-1280_AU11-33_AU16Open-66_AU25-66_AU7-33	emotion	Bang	0.37379280717674623	1.3614649782471129
id-1360_AU1-100_AU11-66	1	1	1	4	13	test	id-1360_AU1-100_AU11-66	emotion	Verrassing	0.2445639048554885	1.436376813737752
id-1363_AU14-66	1	1	1	4	14	test_extra	id-1363_AU14-66	emotion	Blij	0.14385011700846442	2.678141812420563
id-1302_AU14-66_AU27i-33	1	1	1	4	15	test_extra	id-1302_AU14-66_AU27i-33	emotion	Verrassing	0.5880242718645389	3.8449590547811567
id-1366_AU9-33	1	1	1	4	16	test_extra	id-1366_AU9-33	emotion	Walging	0.07178532061614844	1.0528974979483792
id-1378_AU14-66_AU2-66_AU5-33_AU7-66	1	1	1	4	17	test_extra	id-1378_AU14-66_AU2-66_AU5-33_AU7-66	emotion	Blij	0.3655187129202516	2.1698379125350584
id-1323_AU12-33_AU20-100_AU25-33_AU4-33	1	1	1	4	18	test_extra	id-1323_AU12-33_AU20-100_AU25-33_AU4-33	emotion	Boos	0.2263806092053512	2.336450798574333
id-1344_AU2-33_AU20-100_AU24-100	1	1	1	4	19	test	id-1344_AU2-33_AU20-100_AU24-100	emotion	Blij	0.12790347751839926	1.2613989020296683
id-1273_AU16Open-33_AU22-100_AU24-100_AU9-100	1	1	1	4	20	train	id-1273_AU16Open-33_AU22-100_AU24-100_AU9-100	emotion	Boos	0.3211972587970449	2.119799893806885
id-1376_AU1-100_AU13-33_AU14-33_AU27i-66	1	1	1	4	21	test	id-1376_AU1-100_AU13-33_AU14-33_AU27i-66	emotion	Verrassing	0.5658019228222856	2.786620003797452
id-1380_AU5-66	1	1	1	4	22	train	id-1380_AU5-66	emotion	Bang	0.27182903632307753	1.6698902845023442
id-1360_AU16Open-33_AU20-66	1	1	1	4	23	test_extra	id-1360_AU16Open-33_AU20-66	emotion	Boos	0.2351812657866421	1.8445446068799365
id-1366_AU15-66_AU24-33_AU4-100_AU9-100	1	1	1	4	24	train	id-1366_AU15-66_AU24-33_AU4-100_AU9-100	emotion	Walging	0.3811720969919354	1.1696386877611076
id-1363_AU14-33_AU27i-66	1	1	1	4	25	train	id-1363_AU14-33_AU27i-66	emotion	Bang	0.2773867561129897	4.203465846987456
id-1367_AU14-66_AU2-100_AU20-66_AU9-33	1	1	1	4	26	test_extra	id-1367_AU14-66_AU2-100_AU20-66_AU9-33	emotion	Boos	0.405975226772123	3.969998258292435
id-1373_AU1-66_AU24-33_AU26-66_AU7-33	1	1	1	4	27	train	id-1373_AU1-66_AU24-33_AU26-66_AU7-33	emotion	Verdrietig	0.488155500107806	3.694972381711068
id-1366_AU20-100_AU22-66_AU4-100	1	1	1	4	28	test_extra	id-1366_AU20-100_AU22-66_AU4-100	emotion	Walging	0.3700510730192538	1.1945547643249483
id-1380_AU10Open-33_AU13-33_AU16Open-100_AU22-33_AU43-66	1	1	1	4	29	test	id-1380_AU10Open-33_AU13-33_AU16Open-100_AU22-33_AU43-66	emotion	Boos	0.2101923736050837	2.76160733340339
id-1285_AU27i-100_AU4-33_AU6-100	1	1	1	4	30	train	id-1285_AU27i-100_AU4-33_AU6-100	emotion	Walging	0.3696857708967112	3.361621943220598
id-1296_AU1-66_AU17-100_AU27i-33_AU4-66_AU5-100	1	1	1	4	31	test	id-1296_AU1-66_AU17-100_AU27i-33_AU4-66_AU5-100	emotion	Verrassing	0.2677760534598567	4.736832827171384
id-1302_AU1-33_AU22-33_AU24-66_AU43-100_AU9-66	1	1	1	4	32	test_extra	id-1302_AU1-33_AU22-33_AU24-66_AU43-100_AU9-66	emotion	Boos	0.27291647757487786	1.5698199823054892
id-1273_AU17-33_AU20-33_AU7-33_AU9-66	1	1	1	4	33	train	id-1273_AU17-33_AU20-33_AU7-33_AU9-66	emotion	Boos	0.25162796975257945	3.1617083343267036
id-1315_AU2-100_AU24-100	1	1	1	4	34	train	id-1315_AU2-100_AU24-100	emotion	Boos	0.4327903219784635	0.9862827705887868
id-1310_AU11-33_AU26-33	1	1	1	4	35	test_extra	id-1310_AU11-33_AU26-33	emotion	Verrassing	0.16867234939996748	0.7029477116470844
id-1274_AU15-100_AU16Open-66_AU24-33	1	1	1	4	36	train	id-1274_AU15-100_AU16Open-66_AU24-33	emotion	Boos	0.497883848682128	1.4865219912458087
id-1342_AU10Open-66_AU25-66_AU26-33_AU5-100	1	1	2	5	1	test_extra	id-1342_AU10Open-66_AU25-66_AU26-33_AU5-100	emotion	Boos	0.5136090164758972	2.5117157750705696
id-1293_AU2-66_AU22-33_AU26-66_AU9-66	1	1	2	5	2	train	id-1293_AU2-66_AU22-33_AU26-66_AU9-66	emotion	Verrassing	0.2387670415355747	0.8957357144518028
id-1274_AU17-33_AU20-100_AU24-100_AU9-100	1	1	2	5	3	test_extra	id-1274_AU17-33_AU20-100_AU24-100_AU9-100	emotion	Boos	0.2393987225857796	1.2280387135997444
id-1356_AU2-33_AU24-100_AU7-100	1	1	2	5	4	train	id-1356_AU2-33_AU24-100_AU7-100	emotion	Blij	0.1507648524652244	1.294785955619318
id-1335_AU1-33_AU14-66_AU2-33	1	1	2	5	5	train	id-1335_AU1-33_AU14-66_AU2-33	emotion	Blij	0.4666191287609149	1.0697193134233205
id-1355_AU14-33_AU7-100	1	1	2	5	6	test_extra	id-1355_AU14-33_AU7-100	emotion	Boos	0.2337153713630636	3.2867224838137186
id-1361_AU11-100_AU12-33_AU13-33	1	1	2	5	7	train	id-1361_AU11-100_AU12-33_AU13-33	emotion	Boos	0.4655786956439867	0.8866939282629573
id-1367_AU1-100_AU22-33_AU26-100	1	1	2	5	8	train	id-1367_AU1-100_AU22-33_AU26-100	emotion	Verrassing	0.3254741047873717	1.386378338108898
id-1279_AU22-66_AU25-66_AU5-66	1	1	2	5	9	train	id-1279_AU22-66_AU25-66_AU5-66	emotion	Verrassing	0.340054809015027	0.953255529015678
id-1354_AU13-66_AU24-100_AU27i-66	1	1	2	5	10	test_extra	id-1354_AU13-66_AU24-100_AU27i-66	emotion	Verrassing	0.6037034368015761	1.7530575720356865
id-1363_AU25-33_AU27i-66	1	1	2	5	11	test_extra	id-1363_AU25-33_AU27i-66	emotion	Geen van allen	0.0	3.0284233381557897
id-1295_AU10Open-66_AU20-66_AU27i-66	1	1	2	5	12	test_extra	id-1295_AU10Open-66_AU20-66_AU27i-66	emotion	Boos	0.24792313071783906	1.5279652721033017
id-1341_AU1-33_AU15-33_AU2-66_AU4-33	1	1	2	5	13	test	id-1341_AU1-33_AU15-33_AU2-66_AU4-33	emotion	Blij	0.14281257238505446	6.337087714140125
id-1347_AU20-100_AU5-100	1	1	2	5	14	train	id-1347_AU20-100_AU5-100	emotion	Bang	0.16772686393116604	2.328256321387016
id-1363_AU1-33_AU15-100_AU2-66_AU22-66_AU5-100	1	1	2	5	15	test	id-1363_AU1-33_AU15-100_AU2-66_AU22-66_AU5-100	emotion	Verrassing	0.2518321653402453	0.9030569230458242
id-1339_AU10Open-100_AU12-33_AU20-100_AU27i-33	1	1	2	5	16	test	id-1339_AU10Open-100_AU12-33_AU20-100_AU27i-33	emotion	Blij	0.4514955976362696	2.5950300663389503
id-1344_AU1-66_AU6-100	1	1	2	5	17	test_extra	id-1344_AU1-66_AU6-100	emotion	Verrassing	0.33199697525413563	6.662088823460183
id-1339_AU22-33_AU25-100_AU27i-100_AU4-66	1	1	2	5	18	train	id-1339_AU22-33_AU25-100_AU27i-100_AU4-66	emotion	Verrassing	0.7375960880537672	4.103581186057454
id-1354_AU10Open-33_AU17-66_AU6-66_AU7-100	1	1	2	5	19	train	id-1354_AU10Open-33_AU17-66_AU6-66_AU7-100	emotion	Boos	0.4824591076968226	1.5698402066386734
id-1361_AU12-33_AU15-33_AU16Open-100_AU6-66	1	1	2	5	20	test	id-1361_AU12-33_AU15-33_AU16Open-100_AU6-66	emotion	Boos	0.3725266999419902	0.8362776843200663
id-1358_AU10Open-33_AU22-100_AU6-100	1	1	2	5	21	test_extra	id-1358_AU10Open-33_AU22-100_AU6-100	emotion	Boos	0.3556727261287343	0.8863567554253677
id-1302_AU15-66_AU24-100_AU25-100_AU43-33	1	1	2	5	22	test	id-1302_AU15-66_AU24-100_AU25-100_AU43-33	emotion	Verdrietig	0.237972948554958	2.9365704541814917
id-1341_AU12-66_AU20-66	1	1	2	5	23	test_extra	id-1341_AU12-66_AU20-66	emotion	Verdrietig	0.08155408940555292	1.378129828748115
id-1366_AU14-33_AU2-100_AU26-100_AU27i-100	1	1	2	5	24	test	id-1366_AU14-33_AU2-100_AU26-100_AU27i-100	emotion	Verrassing	0.7762460765689864	0.8530125653483083
id-1315_AU27i-66	1	1	2	5	25	train	id-1315_AU27i-66	emotion	Verrassing	0.04690326202100637	0.9614161983627127
id-1289_AU1-66_AU12-100_AU27i-100	1	1	2	5	26	test_extra	id-1289_AU1-66_AU12-100_AU27i-100	emotion	Blij	0.7680235902624425	1.130319565593254
id-1339_AU1-66_AU10Open-33_AU26-33	1	1	2	5	27	test_extra	id-1339_AU1-66_AU10Open-33_AU26-33	emotion	Blij	0.15779555804809453	0.9614083501141976
id-1360_AU2-100_AU26-33	1	1	2	5	28	test_extra	id-1360_AU2-100_AU26-33	emotion	Verrassing	0.12059616384283252	1.1113597060648317
id-1356_AU24-33_AU27i-33	1	1	2	5	29	test_extra	id-1356_AU24-33_AU27i-33	emotion	Geen van allen	0.0	1.0946390122558114
id-1274_AU10Open-66_AU2-33_AU43-100_AU9-66	1	1	2	5	30	test	id-1274_AU10Open-66_AU2-33_AU43-100_AU9-66	emotion	Boos	0.5104917131237064	1.1615389932690048
id-1341_AU11-33_AU13-100_AU43-33_AU5-66	1	1	2	5	31	test_extra	id-1341_AU11-33_AU13-100_AU43-33_AU5-66	emotion	Blij	0.13903839376069782	2.3538065968155024
id-1311_AU25-33	1	1	2	5	32	test_extra	id-1311_AU25-33	emotion	Bang	0.12541919952911262	1.5031620895779267
id-1280_AU20-100_AU27i-66_AU9-33	1	1	2	5	33	train	id-1280_AU20-100_AU27i-66_AU9-33	emotion	Verrassing	0.1790328594213658	1.8369037330799085
id-1362_AU1-100_AU26-66	1	1	2	5	34	train	id-1362_AU1-100_AU26-66	emotion	Bang	0.5112334633129946	1.311444165294688
id-1306_AU1-66_AU27i-33	1	1	2	5	35	train	id-1306_AU1-66_AU27i-33	emotion	Verrassing	0.2164349890220344	0.9946689261573738
id-1306_AU15-66_AU26-66_AU5-66	1	1	2	5	36	test_extra	id-1306_AU15-66_AU26-66_AU5-66	emotion	Bang	0.5168444594409792	1.0031788425703778
id-1376_AU12-33_AU17-100_AU22-100_AU26-100	1	1	2	6	1	train	id-1376_AU12-33_AU17-100_AU22-100_AU26-100	emotion	Blij	0.6592092170422701	1.3363635622717993
id-1302_AU15-100_AU4-100_AU5-66_AU9-100	1	1	2	6	2	test_extra	id-1302_AU15-100_AU4-100_AU5-66_AU9-100	emotion	Walging	0.34777162388041377	0.8363130014390663
id-1273_AU1-33_AU13-33_AU26-33	1	1	2	6	3	test	id-1273_AU1-33_AU13-33_AU26-33	emotion	Verrassing	0.4894435856091947	1.3112862947541544
id-1295_AU10Open-33_AU11-66_AU17-33_AU5-100	1	1	2	6	4	test_extra	id-1295_AU10Open-33_AU11-66_AU17-33_AU5-100	emotion	Boos	0.6634639440108989	0.7864687740825502
id-1341_AU14-66_AU2-100_AU27i-66_AU43-100	1	1	2	6	5	test_extra	id-1341_AU14-66_AU2-100_AU27i-66_AU43-100	emotion	Verrassing	0.5831741687662214	1.519920213496789
id-1296_AU22-33_AU24-100_AU7-33_AU9-100	1	1	2	6	6	test_extra	id-1296_AU22-33_AU24-100_AU7-33_AU9-100	emotion	Boos	0.5468603849552086	1.436362626518985
id-1367_AU1-66_AU10Open-66_AU15-33_AU6-100	1	1	2	6	7	test_extra	id-1367_AU1-66_AU10Open-66_AU15-33_AU6-100	emotion	Boos	0.5070094673619098	0.7781028428471473
id-1339_AU20-100_AU43-33_AU9-100	1	1	2	6	8	test_extra	id-1339_AU20-100_AU43-33_AU9-100	emotion	Walging	0.4104772321035382	0.8196686771266286
id-1342_AU1-100_AU14-100_AU15-66_AU5-100_AU7-100	1	1	2	6	9	test	id-1342_AU1-100_AU14-100_AU15-66_AU5-100_AU7-100	emotion	Boos	0.08145283679841446	4.087026814749152
id-1323_AU10Open-100_AU2-33_AU20-66_AU4-66	1	1	2	6	10	test_extra	id-1323_AU10Open-100_AU2-33_AU20-66_AU4-66	emotion	Walging	0.5591991844293331	0.8197227093000947
id-1360_AU14-33_AU5-66	1	1	2	6	11	test_extra	id-1360_AU14-33_AU5-66	emotion	Verdrietig	0.13890685112963894	1.977916839353384
id-1345_AU1-100_AU20-33_AU4-33_AU7-33_AU9-33	1	1	2	6	12	test_extra	id-1345_AU1-100_AU20-33_AU4-33_AU7-33_AU9-33	emotion	Walging	0.2690697281476586	3.11158096630652
id-1341_AU12-66_AU13-33_AU14-100_AU15-33_AU22-100	1	1	2	6	13	test_extra	id-1341_AU12-66_AU13-33_AU14-100_AU15-33_AU22-100	emotion	Blij	0.3431299214692896	2.728389620872349
id-1307_AU10Open-66_AU17-33_AU22-33_AU9-100	1	1	2	6	14	test	id-1307_AU10Open-66_AU17-33_AU22-33_AU9-100	emotion	Boos	0.3568548062457572	1.2613418512992212
id-1279_AU1-100_AU13-66_AU22-100_AU27i-100	1	1	2	6	15	test_extra	id-1279_AU1-100_AU13-66_AU22-100_AU27i-100	emotion	Verrassing	0.5881840737307847	0.8446629343216046
id-1273_AU10Open-66_AU12-66_AU25-66	1	1	2	6	16	test_extra	id-1273_AU10Open-66_AU12-66_AU25-66	emotion	Blij	0.028689963590203888	1.2281072348478121
id-1290_AU11-100_AU15-33	1	1	2	6	17	train	id-1290_AU11-100_AU15-33	emotion	Boos	0.3612235754493962	1.2863961777820805
id-1264_AU1-100_AU4-100	1	1	2	6	18	test_extra	id-1264_AU1-100_AU4-100	emotion	Verrassing	0.16482875213416104	4.270015071655507
id-1260_AU22-100_AU25-100_AU26-100	1	1	2	6	19	test	id-1260_AU22-100_AU25-100_AU26-100	emotion	Verrassing	0.20825375104977736	1.711486908065126
id-1362_AU13-100_AU15-66_AU43-100_AU7-33	1	1	2	6	20	test_extra	id-1362_AU13-100_AU15-66_AU43-100_AU7-33	emotion	Blij	0.28442701844064144	0.8196620363005422
id-1296_AU11-66_AU26-66_AU4-66_AU6-100	1	1	2	6	21	test_extra	id-1296_AU11-66_AU26-66_AU4-66_AU6-100	emotion	Verrassing	0.4159286067840864	0.9529533714412536
id-1266_AU1-33_AU10Open-100_AU11-66_AU12-100_AU14-33	1	1	2	6	22	train	id-1266_AU1-33_AU10Open-100_AU11-66_AU12-100_AU14-33	emotion	Blij	0.078785136082352	1.3615162937185232
id-1279_AU11-33_AU12-100_AU15-33_AU26-66_AU43-100	1	1	2	6	23	test_extra	id-1279_AU11-33_AU12-100_AU15-33_AU26-66_AU43-100	emotion	Blij	0.6585091286339354	0.9199729175052198
id-1376_AU16Open-100_AU43-66_AU5-33	1	1	2	6	24	test_extra	id-1376_AU16Open-100_AU43-66_AU5-33	emotion	Blij	0.11933377224894745	0.8028145630896688
id-1306_AU16Open-66_AU2-33_AU5-33_AU6-100	1	1	2	6	25	test_extra	id-1306_AU16Open-66_AU2-33_AU5-33_AU6-100	emotion	Boos	0.2566439585989969	0.911318714058325
id-1344_AU16Open-33	1	1	2	6	26	test_extra	id-1344_AU16Open-33	emotion	Geen van allen	0.0	1.2115154334305773
id-1360_AU10Open-66_AU20-33	1	1	2	6	27	test_extra	id-1360_AU10Open-66_AU20-33	emotion	Boos	0.17732777790668916	1.253218612060664
id-1361_AU10Open-33_AU11-100_AU13-66_AU2-100	1	1	2	6	28	test_extra	id-1361_AU10Open-33_AU11-100_AU13-66_AU2-100	emotion	Boos	0.4614317337862506	1.3699223717649147
id-1367_AU25-66_AU4-66_AU6-33	1	1	2	6	29	test	id-1367_AU25-66_AU4-66_AU6-33	emotion	Boos	0.2059950117742401	1.2530468561581074
id-1362_AU16Open-100_AU17-100_AU25-33_AU43-100	1	1	2	6	30	test_extra	id-1362_AU16Open-100_AU17-100_AU25-33_AU43-100	emotion	Geen van allen	0.0	1.3280332500107759
id-1297_AU13-66_AU7-33_AU9-33	1	1	2	6	31	train	id-1297_AU13-66_AU7-33_AU9-33	emotion	Boos	0.3295520851967745	0.8782289883520207
id-1341_AU14-33_AU4-100_AU7-66	1	1	2	6	32	test_extra	id-1341_AU14-33_AU4-100_AU7-66	emotion	Walging	0.3326415560912145	1.6449627374204283
id-1297_AU1-100_AU11-33_AU14-33_AU24-66	1	1	2	6	33	test_extra	id-1297_AU1-100_AU11-33_AU14-33_AU24-66	emotion	Boos	0.12557401081148548	0.9364285819929136
id-1273_AU12-100_AU16Open-33_AU20-100_AU22-66_AU5-66	1	1	2	6	34	test	id-1273_AU12-100_AU16Open-33_AU20-100_AU22-66_AU5-66	emotion	Geen van allen	0.0	5.7954504909830575
id-1377_AU10Open-33_AU13-33_AU24-100_AU6-66	1	1	2	6	35	test_extra	id-1377_AU10Open-33_AU13-33_AU24-100_AU6-66	emotion	Blij	0.1359154160783872	0.8363459037127541
id-1335_AU43-66_AU5-66	1	1	2	6	36	test	id-1335_AU43-66_AU5-66	emotion	Blij	0.055823578347213375	1.7286226534870366
id-1295_AU10Open-66_AU20-66_AU27i-66	1	1	2	7	1	test_extra	id-1295_AU10Open-66_AU20-66_AU27i-66	valence	-0.2255480930556124		4.4776715815814905
id-1295_AU10Open-66_AU20-66_AU27i-66	1	1	2	7	1	test_extra	id-1295_AU10Open-66_AU20-66_AU27i-66	arousal	-0.17391660187420716		4.4776715815814905
id-1341_AU12-66_AU20-66	1	1	2	7	2	test_extra	id-1341_AU12-66_AU20-66	valence	-0.17935149568277614		0.968640813127422
id-1341_AU12-66_AU20-66	1	1	2	7	2	test_extra	id-1341_AU12-66_AU20-66	arousal	-0.1820689425870606		0.968640813127422
id-1361_AU11-100_AU12-33_AU13-33	1	1	2	7	3	train	id-1361_AU11-100_AU12-33_AU13-33	valence	-0.2744621373327332		0.7770321606130892
id-1361_AU11-100_AU12-33_AU13-33	1	1	2	7	3	train	id-1361_AU11-100_AU12-33_AU13-33	arousal	0.28261447804558665		0.7770321606130892
id-1279_AU22-66_AU25-66_AU5-66	1	1	2	7	4	train	id-1279_AU22-66_AU25-66_AU5-66	valence	0.1875038363956296		2.8522011771774487
id-1279_AU22-66_AU25-66_AU5-66	1	1	2	7	4	train	id-1279_AU22-66_AU25-66_AU5-66	arousal	0.6467523632197079		2.8522011771774487
id-1341_AU11-33_AU13-100_AU43-33_AU5-66	1	1	2	7	5	test_extra	id-1341_AU11-33_AU13-100_AU43-33_AU5-66	valence	0.4837055489626387		2.1354103622843468
id-1341_AU11-33_AU13-100_AU43-33_AU5-66	1	1	2	7	5	test_extra	id-1341_AU11-33_AU13-100_AU43-33_AU5-66	arousal	-0.1847863894913451		2.1354103622843468
id-1344_AU1-66_AU6-100	1	1	2	7	6	test_extra	id-1344_AU1-66_AU6-100	valence	0.3097889470884315		2.2273275415273006
id-1344_AU1-66_AU6-100	1	1	2	7	6	test_extra	id-1344_AU1-66_AU6-100	arousal	0.12228511069280193		2.2273275415273006
id-1366_AU14-33_AU2-100_AU26-100_AU27i-100	1	1	2	7	7	test	id-1366_AU14-33_AU2-100_AU26-100_AU27i-100	valence	0.15489447354421576		3.0855742850317256
id-1366_AU14-33_AU2-100_AU26-100_AU27i-100	1	1	2	7	7	test	id-1366_AU14-33_AU2-100_AU26-100_AU27i-100	arousal	0.6358825756025699		3.0855742850317256
id-1347_AU20-100_AU5-100	1	1	2	7	8	train	id-1347_AU20-100_AU5-100	valence	-0.24457022138560386		3.2857215302510667
id-1347_AU20-100_AU5-100	1	1	2	7	8	train	id-1347_AU20-100_AU5-100	arousal	0.7092536420182511		3.2857215302510667
id-1302_AU15-66_AU24-100_AU25-100_AU43-33	1	1	2	7	9	test	id-1302_AU15-66_AU24-100_AU25-100_AU43-33	valence	0.0		5.12774051033557
id-1302_AU15-66_AU24-100_AU25-100_AU43-33	1	1	2	7	9	test	id-1302_AU15-66_AU24-100_AU25-100_AU43-33	arousal	-0.3043540532798626		5.12774051033557
id-1289_AU1-66_AU12-100_AU27i-100	1	1	2	7	10	test_extra	id-1289_AU1-66_AU12-100_AU27i-100	valence	0.5543591684740353		3.910642255393213
id-1289_AU1-66_AU12-100_AU27i-100	1	1	2	7	10	test_extra	id-1289_AU1-66_AU12-100_AU27i-100	arousal	0.6983838544011131		3.910642255393213
id-1339_AU10Open-100_AU12-33_AU20-100_AU27i-33	1	1	2	7	11	test	id-1339_AU10Open-100_AU12-33_AU20-100_AU27i-33	valence	0.07880596022425011		1.668846165572177
id-1339_AU10Open-100_AU12-33_AU20-100_AU27i-33	1	1	2	7	11	test	id-1339_AU10Open-100_AU12-33_AU20-100_AU27i-33	arousal	0.5380544870483285		1.668846165572177
id-1361_AU12-33_AU15-33_AU16Open-100_AU6-66	1	1	2	7	12	test	id-1361_AU12-33_AU15-33_AU16Open-100_AU6-66	valence	-0.5842510844211647		3.3605615240812767
id-1361_AU12-33_AU15-33_AU16Open-100_AU6-66	1	1	2	7	12	test	id-1361_AU12-33_AU15-33_AU16Open-100_AU6-66	arousal	0.13858979211850886		3.3605615240812767
id-1363_AU25-33_AU27i-66	1	1	2	7	13	test_extra	id-1363_AU25-33_AU27i-66	valence	-0.3260936285141384		5.511077953937273
id-1363_AU25-33_AU27i-66	1	1	2	7	13	test_extra	id-1363_AU25-33_AU27i-66	arousal	-0.4538136330155093		5.511077953937273
id-1356_AU24-33_AU27i-33	1	1	2	7	14	test_extra	id-1356_AU24-33_AU27i-33	valence	-0.0027174469042844872		1.5687758633748672
id-1356_AU24-33_AU27i-33	1	1	2	7	14	test_extra	id-1356_AU24-33_AU27i-33	arousal	-0.9320842881695792		1.5687758633748672
id-1293_AU2-66_AU22-33_AU26-66_AU9-66	1	1	2	7	15	train	id-1293_AU2-66_AU22-33_AU26-66_AU9-66	valence	-0.8179515181896305		2.6192648545466
id-1293_AU2-66_AU22-33_AU26-66_AU9-66	1	1	2	7	15	train	id-1293_AU2-66_AU22-33_AU26-66_AU9-66	arousal	0.4837055489626387		2.6192648545466
id-1360_AU2-100_AU26-33	1	1	2	7	16	test_extra	id-1360_AU2-100_AU26-33	valence	-0.1711991549699227		2.1520860795917542
id-1360_AU2-100_AU26-33	1	1	2	7	16	test_extra	id-1360_AU2-100_AU26-33	arousal	0.1875038363956296		2.1520860795917542
id-1335_AU1-33_AU14-66_AU2-33	1	1	2	7	17	train	id-1335_AU1-33_AU14-66_AU2-33	valence	0.8152340712853461		1.0018853908177334
id-1335_AU1-33_AU14-66_AU2-33	1	1	2	7	17	train	id-1335_AU1-33_AU14-66_AU2-33	arousal	0.6277302348897165		1.0018853908177334
id-1306_AU15-66_AU26-66_AU5-66	1	1	2	7	18	test_extra	id-1306_AU15-66_AU26-66_AU5-66	valence	-0.7799072615296476		4.085673293708169
id-1306_AU15-66_AU26-66_AU5-66	1	1	2	7	18	test_extra	id-1306_AU15-66_AU26-66_AU5-66	arousal	0.201091070917052		4.085673293708169
id-1354_AU13-66_AU24-100_AU27i-66	1	1	2	7	19	test_extra	id-1354_AU13-66_AU24-100_AU27i-66	valence	-0.7391455579653804		1.2186914494232042
id-1354_AU13-66_AU24-100_AU27i-66	1	1	2	7	19	test_extra	id-1354_AU13-66_AU24-100_AU27i-66	arousal	0.30707150018414703		1.2186914494232042
id-1274_AU10Open-66_AU2-33_AU43-100_AU9-66	1	1	2	7	20	test	id-1274_AU10Open-66_AU2-33_AU43-100_AU9-66	valence	-0.6983838544011131		2.302305785276076
id-1274_AU10Open-66_AU2-33_AU43-100_AU9-66	1	1	2	7	20	test	id-1274_AU10Open-66_AU2-33_AU43-100_AU9-66	arousal	0.26359234971559525		2.302305785276076
id-1339_AU1-66_AU10Open-33_AU26-33	1	1	2	7	21	test_extra	id-1339_AU1-66_AU10Open-33_AU26-33	valence	0.3831600135041127		2.694072549815246
id-1339_AU1-66_AU10Open-33_AU26-33	1	1	2	7	21	test_extra	id-1339_AU1-66_AU10Open-33_AU26-33	arousal	0.5407719339526129		2.694072549815246
id-1356_AU2-33_AU24-100_AU7-100	1	1	2	7	22	train	id-1356_AU2-33_AU24-100_AU7-100	valence	0.07608851331996565		3.3610979216928167
id-1356_AU2-33_AU24-100_AU7-100	1	1	2	7	22	train	id-1356_AU2-33_AU24-100_AU7-100	arousal	-0.4701183144412162		3.3610979216928167
id-1354_AU10Open-33_AU17-66_AU6-66_AU7-100	1	1	2	7	23	train	id-1354_AU10Open-33_AU17-66_AU6-66_AU7-100	valence	-0.3913123542169661		4.903228377093001
id-1354_AU10Open-33_AU17-66_AU6-66_AU7-100	1	1	2	7	23	train	id-1354_AU10Open-33_AU17-66_AU6-66_AU7-100	arousal	-0.8233864119981995		4.903228377093001
id-1339_AU22-33_AU25-100_AU27i-100_AU4-66	1	1	2	7	24	train	id-1339_AU22-33_AU25-100_AU27i-100_AU4-66	valence	0.15489447354421576		1.3188420452415812
id-1339_AU22-33_AU25-100_AU27i-100_AU4-66	1	1	2	7	24	train	id-1339_AU22-33_AU25-100_AU27i-100_AU4-66	arousal	-0.4864229958669232		1.3188420452415812
id-1274_AU17-33_AU20-100_AU24-100_AU9-100	1	1	2	7	25	test_extra	id-1274_AU17-33_AU20-100_AU24-100_AU9-100	valence	-0.1875038363956296		1.3937073949518892
id-1274_AU17-33_AU20-100_AU24-100_AU9-100	1	1	2	7	25	test_extra	id-1274_AU17-33_AU20-100_AU24-100_AU9-100	arousal	-0.5326195932397594		1.3937073949518892
id-1315_AU27i-66	1	1	2	7	26	train	id-1315_AU27i-66	valence	-0.00815234071285346		1.4021361121767768
id-1315_AU27i-66	1	1	2	7	26	train	id-1315_AU27i-66	arousal	-0.5842510844211647		1.4021361121767768
id-1306_AU1-66_AU27i-33	1	1	2	7	27	train	id-1306_AU1-66_AU27i-33	valence	-0.13858979211850886		2.027125358566991
id-1306_AU1-66_AU27i-33	1	1	2	7	27	train	id-1306_AU1-66_AU27i-33	arousal	0.3206587347055695		2.027125358566991
id-1342_AU10Open-66_AU25-66_AU26-33_AU5-100	1	1	2	7	28	test_extra	id-1342_AU10Open-66_AU25-66_AU26-33_AU5-100	valence	-0.6331651286982856		1.1769783095533055
id-1342_AU10Open-66_AU25-66_AU26-33_AU5-100	1	1	2	7	28	test_extra	id-1342_AU10Open-66_AU25-66_AU26-33_AU5-100	arousal	0.5081625711011989		1.1769783095533055
id-1362_AU1-100_AU26-66	1	1	2	7	29	train	id-1362_AU1-100_AU26-66	valence	-0.2418527744813193		5.760919404221567
id-1362_AU1-100_AU26-66	1	1	2	7	29	train	id-1362_AU1-100_AU26-66	arousal	-0.20652596472562101		5.760919404221567
id-1367_AU1-100_AU22-33_AU26-100	1	1	2	7	30	train	id-1367_AU1-100_AU22-33_AU26-100	valence	0.2608749028113107		3.2275400479529717
id-1367_AU1-100_AU22-33_AU26-100	1	1	2	7	30	train	id-1367_AU1-100_AU22-33_AU26-100	arousal	-0.20652596472562101		3.2275400479529717
id-1341_AU1-33_AU15-33_AU2-66_AU4-33	1	1	2	7	31	test	id-1341_AU1-33_AU15-33_AU2-66_AU4-33	valence	-0.1657642611613537		1.8770599011540985
id-1341_AU1-33_AU15-33_AU2-66_AU4-33	1	1	2	7	31	test	id-1341_AU1-33_AU15-33_AU2-66_AU4-33	arousal	-0.105980429267095		1.8770599011540985
id-1355_AU14-33_AU7-100	1	1	2	7	32	test_extra	id-1355_AU14-33_AU7-100	valence	0.2418527744813193		1.6354986550823014
id-1355_AU14-33_AU7-100	1	1	2	7	32	test_extra	id-1355_AU14-33_AU7-100	arousal	-0.1711991549699227		1.6354986550823014
id-1363_AU1-33_AU15-100_AU2-66_AU22-66_AU5-100	1	1	2	7	33	test	id-1363_AU1-33_AU15-100_AU2-66_AU22-66_AU5-100	valence	0.2798970311413021		2.8605803900645697
id-1363_AU1-33_AU15-100_AU2-66_AU22-66_AU5-100	1	1	2	7	33	test	id-1363_AU1-33_AU15-100_AU2-66_AU22-66_AU5-100	arousal	0.1521770266399313		2.8605803900645697
id-1311_AU25-33	1	1	2	7	34	test_extra	id-1311_AU25-33	valence	0.0054348938085689745		0.9104170710279504
id-1311_AU25-33	1	1	2	7	34	test_extra	id-1311_AU25-33	arousal	-0.9538238634038548		0.9104170710279504
id-1358_AU10Open-33_AU22-100_AU6-100	1	1	2	7	35	test_extra	id-1358_AU10Open-33_AU22-100_AU6-100	valence	-0.5081625711011989		3.7775398819321717
id-1358_AU10Open-33_AU22-100_AU6-100	1	1	2	7	35	test_extra	id-1358_AU10Open-33_AU22-100_AU6-100	arousal	-0.20652596472562101		3.7775398819321717
id-1280_AU20-100_AU27i-66_AU9-33	1	1	2	7	36	train	id-1280_AU20-100_AU27i-66_AU9-33	valence	-0.6358825756025699		0.9187307812235304
id-1280_AU20-100_AU27i-66_AU9-33	1	1	2	7	36	train	id-1280_AU20-100_AU27i-66_AU9-33	arousal	0.2092434116299055		0.9187307812235304
id-1310_AU14-100_AU43-100_AU9-33	1	1	2	8	1	test_extra	id-1310_AU14-100_AU43-100_AU9-33	valence	-0.3587029913655523		3.2439667342923717
id-1310_AU14-100_AU43-100_AU9-33	1	1	2	8	1	test_extra	id-1310_AU14-100_AU43-100_AU9-33	arousal	-0.4619659737283627		3.2439667342923717
id-1311_AU15-66_AU16Open-100_AU17-66_AU20-100	1	1	2	8	2	train	id-1311_AU15-66_AU16Open-100_AU17-66_AU20-100	valence	-0.1277200045013709		1.4026559077237837
id-1311_AU15-66_AU16Open-100_AU17-66_AU20-100	1	1	2	8	2	train	id-1311_AU15-66_AU16Open-100_AU17-66_AU20-100	arousal	-0.8179515181896305		1.4026559077237837
id-1294_AU11-100_AU2-100_AU24-33	1	1	2	8	3	train	id-1294_AU11-100_AU2-100_AU24-33	valence	0.28261447804558665		2.9271495372104246
id-1294_AU11-100_AU2-100_AU24-33	1	1	2	8	3	train	id-1294_AU11-100_AU2-100_AU24-33	arousal	-0.5679464029954577		2.9271495372104246
id-1366_AU10Open-66_AU12-33_AU6-100_AU7-33	1	1	2	8	4	test_extra	id-1366_AU10Open-66_AU12-33_AU6-100_AU7-33	valence	0.2527225620984573		2.0604052533763024
id-1366_AU10Open-66_AU12-33_AU6-100_AU7-33	1	1	2	8	4	test_extra	id-1366_AU10Open-66_AU12-33_AU6-100_AU7-33	arousal	0.7391455579653804		2.0604052533763024
id-1335_AU24-100_AU25-100_AU27i-66	1	1	2	8	5	test_extra	id-1335_AU24-100_AU25-100_AU27i-66	valence	0.23913532757703485		2.4521611511081574
id-1335_AU24-100_AU25-100_AU27i-66	1	1	2	8	5	test_extra	id-1335_AU24-100_AU25-100_AU27i-66	arousal	0.7282757703482424		2.4521611511081574
id-1344_AU13-66_AU14-66_AU24-33_AU9-33	1	1	2	8	6	test	id-1344_AU13-66_AU14-66_AU24-33_AU9-33	valence	-0.3532680975569833		1.1688318274254923
id-1344_AU13-66_AU14-66_AU24-33_AU9-33	1	1	2	8	6	test	id-1344_AU13-66_AU14-66_AU24-33_AU9-33	arousal	0.4918578896754921		1.1688318274254923
id-1339_AU14-100_AU15-66_AU26-33	1	1	2	8	7	test_extra	id-1339_AU14-100_AU15-66_AU26-33	valence	0.1277200045013709		2.293814885772917
id-1339_AU14-100_AU15-66_AU26-33	1	1	2	8	7	test_extra	id-1339_AU14-100_AU15-66_AU26-33	arousal	0.20380851782133647		2.293814885772917
id-1355_AU10Open-33	1	1	2	8	8	test_extra	id-1355_AU10Open-33	valence	-0.29891915947129355		2.360681662657953
id-1355_AU10Open-33	1	1	2	8	8	test_extra	id-1355_AU10Open-33	arousal	0.13587234521422434		2.360681662657953
id-1306_AU24-66_AU43-100_AU7-100	1	1	2	8	9	test	id-1306_AU24-66_AU43-100_AU7-100	valence	0.105980429267095		1.9192988736858752
id-1306_AU24-66_AU43-100_AU7-100	1	1	2	8	9	test	id-1306_AU24-66_AU43-100_AU7-100	arousal	-0.2717446904284487		1.9192988736858752
id-1347_AU13-100_AU14-66_AU17-100_AU27i-66_AU7-100	1	1	2	8	10	test	id-1347_AU13-100_AU14-66_AU17-100_AU27i-66_AU7-100	valence	0.4972927834840611		1.235401880138852
id-1347_AU13-100_AU14-66_AU17-100_AU27i-66_AU7-100	1	1	2	8	10	test	id-1347_AU13-100_AU14-66_AU17-100_AU27i-66_AU7-100	arousal	0.8261038589024841		1.235401880138852
id-1345_AU11-100_AU20-66	1	1	2	8	11	test_extra	id-1345_AU11-100_AU20-66	valence	-0.19022128329991408		3.443960033095209
id-1345_AU11-100_AU20-66	1	1	2	8	11	test_extra	id-1345_AU11-100_AU20-66	arousal	-0.6331651286982856		3.443960033095209
id-1363_AU13-100_AU20-66_AU22-66_AU5-66	1	1	2	8	12	test_extra	id-1363_AU13-100_AU20-66_AU22-66_AU5-66	valence	-0.10869787617137948		3.4524986258020363
id-1363_AU13-100_AU20-66_AU22-66_AU5-66	1	1	2	8	12	test_extra	id-1363_AU13-100_AU20-66_AU22-66_AU5-66	arousal	0.6467523632197079		3.4524986258020363
id-1309_AU20-100_AU25-66	1	1	2	8	13	test_extra	id-1309_AU20-100_AU25-66	valence	-0.5299021463354749		1.7939333641425037
id-1309_AU20-100_AU25-66	1	1	2	8	13	test_extra	id-1309_AU20-100_AU25-66	arousal	-0.1277200045013709		1.7939333641425037
id-1345_AU10Open-33_AU27i-100	1	1	2	8	14	test_extra	id-1345_AU10Open-33_AU27i-100	valence	-0.29348426566272456		1.9021311315573253
id-1345_AU10Open-33_AU27i-100	1	1	2	8	14	test_extra	id-1345_AU10Open-33_AU27i-100	arousal	0.14945957973564675		1.9021311315573253
id-1273_AU13-33_AU4-100_AU9-100	1	1	2	8	15	test_extra	id-1273_AU13-33_AU4-100_AU9-100	valence	-0.4674008675369317		1.1437449005252347
id-1273_AU13-33_AU4-100_AU9-100	1	1	2	8	15	test_extra	id-1273_AU13-33_AU4-100_AU9-100	arousal	0.7472978986782339		1.1437449005252347
id-1266_AU25-100_AU4-100	1	1	2	8	16	test_extra	id-1266_AU25-100_AU4-100	valence	-0.13043745140565535		1.4771388062390542
id-1266_AU25-100_AU4-100	1	1	2	8	16	test_extra	id-1266_AU25-100_AU4-100	arousal	-0.2608749028113107		1.4771388062390542
id-1307_AU1-33_AU10Open-100_AU4-66_AU9-33	1	1	2	8	17	train	id-1307_AU1-33_AU10Open-100_AU4-66_AU9-33	valence	-0.1847863894913451		2.0521036174095566
id-1307_AU1-33_AU10Open-100_AU4-66_AU9-33	1	1	2	8	17	train	id-1307_AU1-33_AU10Open-100_AU4-66_AU9-33	arousal	-0.4103344825469576		2.0521036174095566
id-1307_AU1-66_AU10Open-100_AU6-33	1	1	2	8	18	test_extra	id-1307_AU1-66_AU10Open-100_AU6-33	valence	-0.4293566108769489		1.9021196610401605
id-1307_AU1-66_AU10Open-100_AU6-33	1	1	2	8	18	test_extra	id-1307_AU1-66_AU10Open-100_AU6-33	arousal	0.2201131992470434		1.9021196610401605
id-1360_AU6-33_AU9-33	1	1	2	8	19	test_extra	id-1360_AU6-33_AU9-33	valence	-0.19293873020419855		4.952632196957893
id-1360_AU6-33_AU9-33	1	1	2	8	19	test_extra	id-1360_AU6-33_AU9-33	arousal	-0.26359234971559525		4.952632196957893
id-1367_AU17-66_AU9-100	1	1	2	8	20	test_extra	id-1367_AU17-66_AU9-100	valence	-0.11956766378851742		2.668996489719575
id-1367_AU17-66_AU9-100	1	1	2	8	20	test_extra	id-1367_AU17-66_AU9-100	arousal	-0.4619659737283627		2.668996489719575
id-1290_AU10Open-33_AU14-66_AU24-66	1	1	2	8	21	test	id-1290_AU10Open-33_AU14-66_AU24-66	valence	-0.5760987437083112		2.1855241467965243
id-1290_AU10Open-33_AU14-66_AU24-66	1	1	2	8	21	test	id-1290_AU10Open-33_AU14-66_AU24-66	arousal	0.23913532757703485		2.1855241467965243
id-1273_AU11-100_AU15-33_AU20-33	1	1	2	8	22	test_extra	id-1273_AU11-100_AU15-33_AU20-33	valence	-0.11141532307566396		2.377406280591458
id-1273_AU11-100_AU15-33_AU20-33	1	1	2	8	22	test_extra	id-1273_AU11-100_AU15-33_AU20-33	arousal	-0.1684817080656382		2.377406280591458
id-1315_AU12-66_AU17-33_AU2-100_AU4-100	1	1	2	8	23	test	id-1315_AU12-66_AU17-33_AU2-100_AU4-100	valence	0.11685021688423293		1.218797098925279
id-1315_AU12-66_AU17-33_AU2-100_AU4-100	1	1	2	8	23	test	id-1315_AU12-66_AU17-33_AU2-100_AU4-100	arousal	-0.1250025575970864		1.218797098925279
id-1311_AU16Open-100_AU43-100_AU6-66_AU9-100	1	1	2	8	24	test	id-1311_AU16Open-100_AU43-100_AU6-66_AU9-100	valence	0.1521770266399313		6.3026927643077215
id-1311_AU16Open-100_AU43-100_AU6-66_AU9-100	1	1	2	8	24	test	id-1311_AU16Open-100_AU43-100_AU6-66_AU9-100	arousal	-0.2255480930556124		6.3026927643077215
id-1360_AU24-66_AU26-33_AU5-100_AU7-33	1	1	2	8	25	test_extra	id-1360_AU24-66_AU26-33_AU5-100_AU7-33	valence	-0.26359234971559525		1.727104621078979
id-1360_AU24-66_AU26-33_AU5-100_AU7-33	1	1	2	8	25	test_extra	id-1360_AU24-66_AU26-33_AU5-100_AU7-33	arousal	0.5516417215697509		1.727104621078979
id-1355_AU10Open-100_AU12-100_AU27i-66	1	1	2	8	26	test_extra	id-1355_AU10Open-100_AU12-100_AU27i-66	valence	0.105980429267095		1.2770123890641116
id-1355_AU10Open-100_AU12-100_AU27i-66	1	1	2	8	26	test_extra	id-1355_AU10Open-100_AU12-100_AU27i-66	arousal	0.6358825756025699		1.2770123890641116
id-1366_AU22-66_AU43-66	1	1	2	8	27	test_extra	id-1366_AU22-66_AU43-66	valence	0.0		0.9187337997809664
id-1366_AU22-66_AU43-66	1	1	2	8	27	test_extra	id-1366_AU22-66_AU43-66	arousal	0.0		0.9187337997809664
id-1361_AU7-66	1	1	2	8	28	train	id-1361_AU7-66	valence	-0.2554400090027418		2.1437741805293618
id-1361_AU7-66	1	1	2	8	28	train	id-1361_AU7-66	arousal	-0.13315489830993985		2.1437741805293618
id-1355_AU12-100_AU26-33_AU5-66	1	1	2	8	29	train	id-1355_AU12-100_AU26-33_AU5-66	valence	-0.09511064164995704		8.152996476437693
id-1355_AU12-100_AU26-33_AU5-66	1	1	2	8	29	train	id-1355_AU12-100_AU26-33_AU5-66	arousal	-0.2472876682898883		8.152996476437693
id-1293_AU22-66_AU25-100_AU5-33_AU9-33	1	1	2	8	30	test	id-1293_AU22-66_AU25-100_AU5-33_AU9-33	valence	-0.11956766378851742		4.460991034583459
id-1293_AU22-66_AU25-100_AU5-33_AU9-33	1	1	2	8	30	test	id-1293_AU22-66_AU25-100_AU5-33_AU9-33	arousal	-0.26902724352416424		4.460991034583459
id-1270_AU5-33_AU7-100	1	1	2	8	31	train	id-1270_AU5-33_AU7-100	valence	-0.1630468142570692		1.2854305413393377
id-1270_AU5-33_AU7-100	1	1	2	8	31	train	id-1270_AU5-33_AU7-100	arousal	-0.6141430003682941		1.2854305413393377
id-1280_AU13-100_AU17-100_AU4-100	1	1	2	8	32	test_extra	id-1280_AU13-100_AU17-100_AU4-100	valence	-0.20380851782133647		1.0020166980548308
id-1280_AU13-100_AU17-100_AU4-100	1	1	2	8	32	test_extra	id-1280_AU13-100_AU17-100_AU4-100	arousal	0.4782706551540697		1.0020166980548308
id-1360_AU11-33_AU25-100	1	1	2	8	33	test_extra	id-1360_AU11-33_AU25-100	valence	-0.09239319474567256		1.8605073409798931
id-1360_AU11-33_AU25-100	1	1	2	8	33	test_extra	id-1360_AU11-33_AU25-100	arousal	-0.2500051151941728		1.8605073409798931
id-1370_AU2-33_AU25-66_AU4-100	1	1	2	8	34	train	id-1370_AU2-33_AU25-66_AU4-100	valence	0.8532783279453289		1.5771107034715897
id-1370_AU2-33_AU25-66_AU4-100	1	1	2	8	34	train	id-1370_AU2-33_AU25-66_AU4-100	arousal	0.1847863894913451		1.5771107034715897
id-1291_AU13-66_AU7-33_AU9-66	1	1	2	8	35	train	id-1291_AU13-66_AU7-33_AU9-66	valence	-0.7391455579653804		2.11042093478045
id-1291_AU13-66_AU7-33_AU9-66	1	1	2	8	35	train	id-1291_AU13-66_AU7-33_AU9-66	arousal	-0.15761192044850025		2.11042093478045
id-1309_AU10Open-100_AU2-100_AU27i-33	1	1	2	8	36	test_extra	id-1309_AU10Open-100_AU2-100_AU27i-33	valence	-0.1521770266399313		0.9852736669217848
id-1309_AU10Open-100_AU2-100_AU27i-33	1	1	2	8	36	test_extra	id-1309_AU10Open-100_AU2-100_AU27i-33	arousal	0.41305192945124203		0.9852736669217848
id-1266_AU11-66_AU17-100_AU7-33	1	1	3	9	1	train	id-1266_AU11-66_AU17-100_AU7-33	valence	-0.2282655399598969		2.919037466634109
id-1266_AU11-66_AU17-100_AU7-33	1	1	3	9	1	train	id-1266_AU11-66_AU17-100_AU7-33	arousal	-0.13043745140565535		2.919037466634109
id-1291_AU20-33_AU24-100_AU25-33_AU27i-100	1	1	3	9	2	test	id-1291_AU20-33_AU24-100_AU25-33_AU27i-100	valence	-0.3451157568441299		2.5189074875606816
id-1291_AU20-33_AU24-100_AU25-33_AU27i-100	1	1	3	9	2	test	id-1291_AU20-33_AU24-100_AU25-33_AU27i-100	arousal	0.5760987437083112		2.5189074875606816
id-1354_AU11-100_AU15-100_AU4-66_AU9-66	1	1	3	9	3	test_extra	id-1354_AU11-100_AU15-100_AU4-66_AU9-66	valence	-0.2418527744813193		1.460402415932549
id-1354_AU11-100_AU15-100_AU4-66_AU9-66	1	1	3	9	3	test_extra	id-1354_AU11-100_AU15-100_AU4-66_AU9-66	arousal	-0.3505506506526989		1.460402415932549
id-1273_AU17-33_AU20-33_AU7-33_AU9-66	1	1	3	9	4	train	id-1273_AU17-33_AU20-33_AU7-33_AU9-66	valence	0.1440246859270778		2.168934458369222
id-1273_AU17-33_AU20-33_AU7-33_AU9-66	1	1	3	9	4	train	id-1273_AU17-33_AU20-33_AU7-33_AU9-66	arousal	-0.1521770266399313		2.168934458369222
id-1323_AU12-33_AU20-100_AU25-33_AU4-33	1	1	3	9	5	test_extra	id-1323_AU12-33_AU20-100_AU25-33_AU4-33	valence	-0.11685021688423293		1.3196872412536322
id-1323_AU12-33_AU20-100_AU25-33_AU4-33	1	1	3	9	5	test_extra	id-1323_AU12-33_AU20-100_AU25-33_AU4-33	arousal	-0.3722902258869748		1.3196872412536322
id-1310_AU11-33_AU26-33	1	1	3	9	6	test_extra	id-1310_AU11-33_AU26-33	valence	-0.09239319474567256		1.7438171647836498
id-1310_AU11-33_AU26-33	1	1	3	9	6	test_extra	id-1310_AU11-33_AU26-33	arousal	-0.7472978986782339		1.7438171647836498
id-1315_AU2-100_AU24-100	1	1	3	9	7	train	id-1315_AU2-100_AU24-100	valence	0.1277200045013709		1.0187241102121334
id-1315_AU2-100_AU24-100	1	1	3	9	7	train	id-1315_AU2-100_AU24-100	arousal	0.28261447804558665		1.0187241102121334
id-1296_AU1-66_AU17-100_AU27i-33_AU4-66_AU5-100	1	1	3	9	8	test	id-1296_AU1-66_AU17-100_AU27i-33_AU4-66_AU5-100	valence	-0.17391660187420716		1.893791461769979
id-1296_AU1-66_AU17-100_AU27i-33_AU4-66_AU5-100	1	1	3	9	8	test	id-1296_AU1-66_AU17-100_AU27i-33_AU4-66_AU5-100	arousal	0.8804527969881736		1.893791461769979
id-1360_AU1-100_AU11-66	1	1	3	9	9	test	id-1360_AU1-100_AU11-66	valence	-0.13315489830993985		0.8521368819083364
id-1360_AU1-100_AU11-66	1	1	3	9	9	test	id-1360_AU1-100_AU11-66	arousal	0.30707150018414703		0.8521368819083364
id-1366_AU20-100_AU22-66_AU4-100	1	1	3	9	10	test_extra	id-1366_AU20-100_AU22-66_AU4-100	valence	-0.2255480930556124		1.1935849019009763
id-1366_AU20-100_AU22-66_AU4-100	1	1	3	9	10	test_extra	id-1366_AU20-100_AU22-66_AU4-100	arousal	0.8342561996153375		1.1935849019009763
id-1311_AU10Open-66_AU16Open-33_AU25-100	1	1	3	9	11	test_extra	id-1311_AU10Open-66_AU16Open-33_AU25-100	valence	-0.3315285223227074		1.6269851164006468
id-1311_AU10Open-66_AU16Open-33_AU25-100	1	1	3	9	11	test_extra	id-1311_AU10Open-66_AU16Open-33_AU25-100	arousal	-0.3478332037484143		1.6269851164006468
id-1273_AU16Open-33_AU22-100_AU24-100_AU9-100	1	1	3	9	12	train	id-1273_AU16Open-33_AU22-100_AU24-100_AU9-100	valence	-0.30163660637557804		1.3021458017456098
id-1273_AU16Open-33_AU22-100_AU24-100_AU9-100	1	1	3	9	12	train	id-1273_AU16Open-33_AU22-100_AU24-100_AU9-100	arousal	-0.38044256659982817		1.3021458017456098
id-1274_AU15-100_AU16Open-66_AU24-33	1	1	3	9	13	train	id-1274_AU15-100_AU16Open-66_AU24-33	valence	-0.4429438453983714		2.1938505349335173
id-1274_AU15-100_AU16Open-66_AU24-33	1	1	3	9	13	train	id-1274_AU15-100_AU16Open-66_AU24-33	arousal	0.14945957973564675		2.1938505349335173
id-1363_AU14-33_AU27i-66	1	1	3	9	14	train	id-1363_AU14-33_AU27i-66	valence	0.17935149568277614		0.7853054221441198
id-1363_AU14-33_AU27i-66	1	1	3	9	14	train	id-1363_AU14-33_AU27i-66	arousal	-0.5326195932397594		0.7853054221441198
id-1366_AU9-33	1	1	3	9	15	test_extra	id-1366_AU9-33	valence	-0.07608851331996565		3.068990331862551
id-1366_AU9-33	1	1	3	9	15	test_extra	id-1366_AU9-33	arousal	-0.3206587347055695		3.068990331862551
id-1311_AU13-33_AU17-66_AU26-33_AU6-100	1	1	3	9	16	test_extra	id-1311_AU13-33_AU17-66_AU26-33_AU6-100	valence	0.12228511069280193		0.7853802823619844
id-1311_AU13-33_AU17-66_AU26-33_AU6-100	1	1	3	9	16	test_extra	id-1311_AU13-33_AU17-66_AU26-33_AU6-100	arousal	-0.3967472480255351		0.7853802823619844
id-1380_AU25-33_AU4-66_AU5-100	1	1	3	9	17	train	id-1380_AU25-33_AU4-66_AU5-100	valence	-0.09782808855424154		0.8353377056128011
id-1380_AU25-33_AU4-66_AU5-100	1	1	3	9	17	train	id-1380_AU25-33_AU4-66_AU5-100	arousal	0.17391660187420716		0.8353377056128011
id-1376_AU1-100_AU13-33_AU14-33_AU27i-66	1	1	3	9	18	test	id-1376_AU1-100_AU13-33_AU14-33_AU27i-66	valence	-0.1657642611613537		4.5359505632777655
id-1376_AU1-100_AU13-33_AU14-33_AU27i-66	1	1	3	9	18	test	id-1376_AU1-100_AU13-33_AU14-33_AU27i-66	arousal	-0.4565310799197938		4.5359505632777655
id-1380_AU5-66	1	1	3	9	19	train	id-1380_AU5-66	valence	-0.07880596022425011		1.3436760170507114
id-1380_AU5-66	1	1	3	9	19	train	id-1380_AU5-66	arousal	-0.5951208720383027		1.3436760170507114
id-1373_AU1-66_AU24-33_AU26-66_AU7-33	1	1	3	9	20	train	id-1373_AU1-66_AU24-33_AU26-66_AU7-33	valence	-0.1250025575970864		2.3187774481175443
id-1373_AU1-66_AU24-33_AU26-66_AU7-33	1	1	3	9	20	train	id-1373_AU1-66_AU24-33_AU26-66_AU7-33	arousal	-0.5978383189425871		2.3187774481175443
id-1295_AU15-66_AU17-33_AU20-33_AU25-66	1	1	3	9	21	test_extra	id-1295_AU15-66_AU17-33_AU20-33_AU25-66	valence	-0.4347915046855179		1.6938099353392315
id-1295_AU15-66_AU17-33_AU20-33_AU25-66	1	1	3	9	21	test_extra	id-1295_AU15-66_AU17-33_AU20-33_AU25-66	arousal	0.15489447354421576		1.6938099353392315
id-1358_AU12-66_AU24-33_AU26-100_AU7-33	1	1	3	9	22	test_extra	id-1358_AU12-66_AU24-33_AU26-100_AU7-33	valence	-0.40761703564267293		5.410929772965575
id-1358_AU12-66_AU24-33_AU26-100_AU7-33	1	1	3	9	22	test_extra	id-1358_AU12-66_AU24-33_AU26-100_AU7-33	arousal	-0.13043745140565535		5.410929772965575
id-1380_AU10Open-33_AU13-33_AU16Open-100_AU22-33_AU43-66	1	1	3	9	23	test	id-1380_AU10Open-33_AU13-33_AU16Open-100_AU22-33_AU43-66	valence	-0.312506393992716		2.2522161492206583
id-1380_AU10Open-33_AU13-33_AU16Open-100_AU22-33_AU43-66	1	1	3	9	23	test	id-1380_AU10Open-33_AU13-33_AU16Open-100_AU22-33_AU43-66	arousal	0.14674213283136228		2.2522161492206583
id-1274_AU11-66_AU12-66_AU24-66_AU27i-100_AU7-100	1	1	3	9	24	train	id-1274_AU11-66_AU12-66_AU24-66_AU27i-100_AU7-100	valence	-0.2554400090027418		0.9602872579762334
id-1274_AU11-66_AU12-66_AU24-66_AU27i-100_AU7-100	1	1	3	9	24	train	id-1274_AU11-66_AU12-66_AU24-66_AU27i-100_AU7-100	arousal	0.5462068277611818		0.9602872579762334
id-1366_AU15-66_AU24-33_AU4-100_AU9-100	1	1	3	9	25	train	id-1366_AU15-66_AU24-33_AU4-100_AU9-100	valence	-0.26902724352416424		1.993808033648748
id-1366_AU15-66_AU24-33_AU4-100_AU9-100	1	1	3	9	25	train	id-1366_AU15-66_AU24-33_AU4-100_AU9-100	arousal	0.23098298686418134		1.993808033648748
id-1285_AU27i-100_AU4-33_AU6-100	1	1	3	9	26	train	id-1285_AU27i-100_AU4-33_AU6-100	valence	-0.13315489830993985		0.9855208867556942
id-1285_AU27i-100_AU4-33_AU6-100	1	1	3	9	26	train	id-1285_AU27i-100_AU4-33_AU6-100	arousal	0.7391455579653804		0.9855208867556942
id-1344_AU2-33_AU20-100_AU24-100	1	1	3	9	27	test	id-1344_AU2-33_AU20-100_AU24-100	valence	-0.05434893808568974		1.6021182423182836
id-1344_AU2-33_AU20-100_AU24-100	1	1	3	9	27	test	id-1344_AU2-33_AU20-100_AU24-100	arousal	0.4809881020583541		1.6021182423182836
id-1280_AU11-33_AU16Open-66_AU25-66_AU7-33	1	1	3	9	28	test_extra	id-1280_AU11-33_AU16Open-66_AU25-66_AU7-33	valence	-0.2418527744813193		1.9520055444854727
id-1280_AU11-33_AU16Open-66_AU25-66_AU7-33	1	1	3	9	28	test_extra	id-1280_AU11-33_AU16Open-66_AU25-66_AU7-33	arousal	-0.3206587347055695		1.9520055444854727
id-1367_AU14-66_AU2-100_AU20-66_AU9-33	1	1	3	9	29	test_extra	id-1367_AU14-66_AU2-100_AU20-66_AU9-33	valence	-0.4429438453983714		4.927456222620094
id-1367_AU14-66_AU2-100_AU20-66_AU9-33	1	1	3	9	29	test_extra	id-1367_AU14-66_AU2-100_AU20-66_AU9-33	arousal	-0.0815234071285346		4.927456222620094
id-1363_AU14-66	1	1	3	9	30	test_extra	id-1363_AU14-66	valence	0.14130723902279332		1.2770440839140065
id-1363_AU14-66	1	1	3	9	30	test_extra	id-1363_AU14-66	arousal	0.1684817080656382		1.2770440839140065
id-1378_AU14-66_AU2-66_AU5-33_AU7-66	1	1	3	9	31	test_extra	id-1378_AU14-66_AU2-66_AU5-33_AU7-66	valence	0.7472978986782339		6.027542221314434
id-1378_AU14-66_AU2-66_AU5-33_AU7-66	1	1	3	9	31	test_extra	id-1378_AU14-66_AU2-66_AU5-33_AU7-66	arousal	0.2472876682898883		6.027542221314434
id-1309_AU11-66_AU24-66	1	1	3	9	32	test	id-1309_AU11-66_AU24-66	valence	-0.16032936735278475		1.8603102291963296
id-1309_AU11-66_AU24-66	1	1	3	9	32	test	id-1309_AU11-66_AU24-66	arousal	-0.1521770266399313		1.8603102291963296
id-1302_AU1-33_AU22-33_AU24-66_AU43-100_AU9-66	1	1	3	9	33	test_extra	id-1302_AU1-33_AU22-33_AU24-66_AU43-100_AU9-66	valence	0.105980429267095		2.543792171130008
id-1302_AU1-33_AU22-33_AU24-66_AU43-100_AU9-66	1	1	3	9	33	test_extra	id-1302_AU1-33_AU22-33_AU24-66_AU43-100_AU9-66	arousal	-0.524467252526906		2.543792171130008
id-1302_AU14-66_AU27i-33	1	1	3	9	34	test_extra	id-1302_AU14-66_AU27i-33	valence	-0.11956766378851742		1.0770091290223718
id-1302_AU14-66_AU27i-33	1	1	3	9	34	test_extra	id-1302_AU14-66_AU27i-33	arousal	0.2798970311413021		1.0770091290223718
id-1311_AU11-100_AU16Open-33_AU24-100_AU5-100	1	1	3	9	35	test_extra	id-1311_AU11-100_AU16Open-33_AU24-100_AU5-100	valence	-0.5353370401440439		0.8769482145380607
id-1311_AU11-100_AU16Open-33_AU24-100_AU5-100	1	1	3	9	35	test_extra	id-1311_AU11-100_AU16Open-33_AU24-100_AU5-100	arousal	0.11956766378851742		0.8769482145380607
id-1360_AU16Open-33_AU20-66	1	1	3	9	36	test_extra	id-1360_AU16Open-33_AU20-66	valence	-0.07880596022425011		1.3186645540790778
id-1360_AU16Open-33_AU20-66	1	1	3	9	36	test_extra	id-1360_AU16Open-33_AU20-66	arousal	-0.7690374739125099		1.3186645540790778
id-1367_AU43-100	1	1	3	10	1	train	id-1367_AU43-100	valence	0.2364178806727504		4.027432345832494
id-1367_AU43-100	1	1	3	10	1	train	id-1367_AU43-100	arousal	-0.7527327924868029		4.027432345832494
id-1264_AU10Open-33_AU25-66_AU4-66	1	1	3	10	2	test	id-1264_AU10Open-33_AU25-66_AU4-66	valence	-0.105980429267095		0.7770294439123973
id-1264_AU10Open-33_AU25-66_AU4-66	1	1	3	10	2	test	id-1264_AU10Open-33_AU25-66_AU4-66	arousal	0.20380851782133647		0.7770294439123973
id-1358_AU11-100_AU12-100_AU14-100_AU16Open-66_AU6-100	1	1	3	10	3	test	id-1358_AU11-100_AU12-100_AU14-100_AU16Open-66_AU6-100	valence	-0.26359234971559525		2.9939936749151457
id-1358_AU11-100_AU12-100_AU14-100_AU16Open-66_AU6-100	1	1	3	10	3	test	id-1358_AU11-100_AU12-100_AU14-100_AU16Open-66_AU6-100	arousal	0.4864229958669232		2.9939936749151457
id-1362_AU17-33_AU5-33	1	1	3	10	4	test_extra	id-1362_AU17-33_AU5-33	valence	-0.13858979211850886		2.2689615951985616
id-1362_AU17-33_AU5-33	1	1	3	10	4	test_extra	id-1362_AU17-33_AU5-33	arousal	-0.50272767729263		2.2689615951985616
id-1295_AU11-33_AU12-100_AU13-100_AU20-33_AU9-66	1	1	3	10	5	test	id-1295_AU11-33_AU12-100_AU13-100_AU20-33_AU9-66	valence	-0.7826247084339323		0.9527284889318252
id-1295_AU11-33_AU12-100_AU13-100_AU20-33_AU9-66	1	1	3	10	5	test	id-1295_AU11-33_AU12-100_AU13-100_AU20-33_AU9-66	arousal	0.19837362401276756		0.9527284889318252
id-1264_AU14-33_AU20-100_AU22-66_AU6-100	1	1	3	10	6	train	id-1264_AU14-33_AU20-100_AU22-66_AU6-100	valence	-0.07065361951139666		1.3187976724511827
id-1264_AU14-33_AU20-100_AU22-66_AU6-100	1	1	3	10	6	train	id-1264_AU14-33_AU20-100_AU22-66_AU6-100	arousal	-0.5054451241969146		1.3187976724511827
id-1315_AU15-33_AU20-100	1	1	3	10	7	test_extra	id-1315_AU15-33_AU20-100	valence	-0.09782808855424154		4.6274689911169835
id-1315_AU15-33_AU20-100	1	1	3	10	7	test_extra	id-1315_AU15-33_AU20-100	arousal	-0.6440349163154233		4.6274689911169835
id-1264_AU14-66_AU15-66_AU20-66_AU6-33	1	1	3	10	8	test_extra	id-1264_AU14-66_AU15-66_AU20-66_AU6-33	valence	-0.20380851782133647		4.7441479986509885
id-1264_AU14-66_AU15-66_AU20-66_AU6-33	1	1	3	10	8	test_extra	id-1264_AU14-66_AU15-66_AU20-66_AU6-33	arousal	-0.17391660187420716		4.7441479986509885
id-1377_AU2-33_AU6-33	1	1	3	10	9	train	id-1377_AU2-33_AU6-33	valence	0.6820791729754062		2.5771985434848834
id-1377_AU2-33_AU6-33	1	1	3	10	9	train	id-1377_AU2-33_AU6-33	arousal	-0.28533192494987114		2.5771985434848834
id-1270_AU22-66_AU26-100	1	1	3	10	10	test_extra	id-1270_AU22-66_AU26-100	valence	-0.1032629823628105		4.610909488260403
id-1270_AU22-66_AU26-100	1	1	3	10	10	test_extra	id-1270_AU22-66_AU26-100	arousal	-0.7853421553382167		4.610909488260403
id-1279_AU1-100_AU15-66_AU16Open-66_AU27i-100_AU43-33	1	1	3	10	11	test_extra	id-1279_AU1-100_AU15-66_AU16Open-66_AU27i-100_AU43-33	valence	0.105980429267095		1.50221124406562
id-1279_AU1-100_AU15-66_AU16Open-66_AU27i-100_AU43-33	1	1	3	10	11	test_extra	id-1279_AU1-100_AU15-66_AU16Open-66_AU27i-100_AU43-33	arousal	-0.8478434341367599		1.50221124406562
id-1323_AU14-66_AU24-100_AU25-66	1	1	3	10	12	test_extra	id-1323_AU14-66_AU24-100_AU25-66	valence	-0.1630468142570692		1.1519765059656493
id-1323_AU14-66_AU24-100_AU25-66	1	1	3	10	12	test_extra	id-1323_AU14-66_AU24-100_AU25-66	arousal	-0.5108800180054835		1.1519765059656493
id-1280_AU1-66_AU17-100_AU26-33	1	1	3	10	13	train	id-1280_AU1-66_AU17-100_AU26-33	valence	-0.1277200045013709		0.9025407497674678
id-1280_AU1-66_AU17-100_AU26-33	1	1	3	10	13	train	id-1280_AU1-66_AU17-100_AU26-33	arousal	-0.6630570446454148		0.9025407497674678
id-1318_AU1-100_AU13-66_AU2-100	1	1	3	10	14	train	id-1318_AU1-100_AU13-66_AU2-100	valence	-0.4837055489626387		0.8021375007137976
id-1318_AU1-100_AU13-66_AU2-100	1	1	3	10	14	train	id-1318_AU1-100_AU13-66_AU2-100	arousal	0.15761192044850025		0.8021375007137976
id-1306_AU16Open-66_AU17-33_AU26-100	1	1	3	10	15	test_extra	id-1306_AU16Open-66_AU17-33_AU26-100	valence	-0.50272767729263		4.8275350371477534
id-1306_AU16Open-66_AU17-33_AU26-100	1	1	3	10	15	test_extra	id-1306_AU16Open-66_AU17-33_AU26-100	arousal	-0.15761192044850025		4.8275350371477534
id-1345_AU17-66_AU25-66_AU6-100	1	1	3	10	16	test	id-1345_AU17-66_AU25-66_AU6-100	valence	-0.12228511069280193		1.2186953735481438
id-1345_AU17-66_AU25-66_AU6-100	1	1	3	10	16	test	id-1345_AU17-66_AU25-66_AU6-100	arousal	-0.7826247084339323		1.2186953735481438
id-1339_AU10Open-66_AU20-66_AU27i-100	1	1	3	10	17	test_extra	id-1339_AU10Open-66_AU20-66_AU27i-100	valence	0.14674213283136228		0.7854358238137138
id-1339_AU10Open-66_AU20-66_AU27i-100	1	1	3	10	17	test_extra	id-1339_AU10Open-66_AU20-66_AU27i-100	arousal	-0.19837362401276756		0.7854358238137138
id-1345_AU14-100	1	1	3	10	18	test_extra	id-1345_AU14-100	valence	0.14130723902279332		1.0354079776243452
id-1345_AU14-100	1	1	3	10	18	test_extra	id-1345_AU14-100	arousal	-0.6929489605925442		1.0354079776243452
id-1370_AU10Open-100_AU2-33_AU27i-66_AU5-66	1	1	3	10	19	test	id-1370_AU10Open-100_AU2-33_AU27i-66_AU5-66	valence	-0.057066384989974225		1.0018609405042298
id-1370_AU10Open-100_AU2-33_AU27i-66_AU5-66	1	1	3	10	19	test	id-1370_AU10Open-100_AU2-33_AU27i-66_AU5-66	arousal	0.40489958873838855		1.0018609405042298
id-1339_AU17-100_AU2-33_AU22-33_AU25-33	1	1	3	10	20	train	id-1339_AU17-100_AU2-33_AU22-33_AU25-33	valence	0.7337106641568115		1.1269170479354216
id-1339_AU17-100_AU2-33_AU22-33_AU25-33	1	1	3	10	20	train	id-1339_AU17-100_AU2-33_AU22-33_AU25-33	arousal	-0.6141430003682941		1.1269170479354216
id-1376_AU10Open-100_AU11-100_AU16Open-66_AU22-33	1	1	3	10	21	train	id-1376_AU10Open-100_AU11-100_AU16Open-66_AU22-33	valence	0.11685021688423293		1.3353432899439213
id-1376_AU10Open-100_AU11-100_AU16Open-66_AU22-33	1	1	3	10	21	train	id-1376_AU10Open-100_AU11-100_AU16Open-66_AU22-33	arousal	-0.8614306686581823		1.3353432899439213
id-1339_AU22-33	1	1	3	10	22	test_extra	id-1339_AU22-33	valence	-0.0054348938085689745		2.502914869744928
id-1339_AU22-33	1	1	3	10	22	test_extra	id-1339_AU22-33	arousal	-0.4918578896754921		2.502914869744928
id-1335_AU1-33_AU14-66_AU27i-66_AU7-100	1	1	3	10	23	test_extra	id-1335_AU1-33_AU14-66_AU27i-66_AU7-100	valence	0.3885949073126817		4.9858019144294285
id-1335_AU1-33_AU14-66_AU27i-66_AU7-100	1	1	3	10	23	test_extra	id-1335_AU1-33_AU14-66_AU27i-66_AU7-100	arousal	0.1684817080656382		4.9858019144294285
id-1269_AU13-33_AU15-100	1	1	3	10	24	test_extra	id-1269_AU13-33_AU15-100	valence	-0.00815234071285346		2.0188834900309303
id-1269_AU13-33_AU15-100	1	1	3	10	24	test_extra	id-1269_AU13-33_AU15-100	arousal	0.13043745140565535		2.0188834900309303
id-1376_AU13-66_AU22-100_AU27i-33_AU6-33	1	1	3	10	25	test_extra	id-1376_AU13-66_AU22-100_AU27i-33_AU6-33	valence	0.05163149118140525		12.536708221130539
id-1376_AU13-66_AU22-100_AU27i-33_AU6-33	1	1	3	10	25	test_extra	id-1376_AU13-66_AU22-100_AU27i-33_AU6-33	arousal	-0.2092434116299055		12.536708221130539
id-1345_AU14-100_AU16Open-100	1	1	3	10	26	test_extra	id-1345_AU14-100_AU16Open-100	valence	0.21467830543847446		1.193767826466683
id-1345_AU14-100_AU16Open-100	1	1	3	10	26	test_extra	id-1345_AU14-100_AU16Open-100	arousal	-0.5760987437083112		1.193767826466683
id-1310_AU12-33_AU14-33_AU22-100_AU6-100	1	1	3	10	27	test	id-1310_AU12-33_AU14-33_AU22-100_AU6-100	valence	-0.31522384089700045		2.3105681800007005
id-1310_AU12-33_AU14-33_AU22-100_AU6-100	1	1	3	10	27	test	id-1310_AU12-33_AU14-33_AU22-100_AU6-100	arousal	0.2282655399598969		2.3105681800007005
id-1341_AU16Open-33_AU27i-100	1	1	3	10	28	test_extra	id-1341_AU16Open-33_AU27i-100	valence	0.0		2.1022400411011404
id-1341_AU16Open-33_AU27i-100	1	1	3	10	28	test_extra	id-1341_AU16Open-33_AU27i-100	arousal	-0.8070817305724926		2.1022400411011404
id-1290_AU14-66_AU16Open-100_AU27i-33	1	1	3	10	29	train	id-1290_AU14-66_AU16Open-100_AU27i-33	valence	-0.3478332037484143		0.8852700748384449
id-1290_AU14-66_AU16Open-100_AU27i-33	1	1	3	10	29	train	id-1290_AU14-66_AU16Open-100_AU27i-33	arousal	-0.8288213058067685		0.8852700748384449
id-1269_AU15-66_AU16Open-66_AU26-33_AU27i-100	1	1	3	10	30	test	id-1269_AU15-66_AU16Open-66_AU26-33_AU27i-100	valence	-0.5299021463354749		1.0937210690162829
id-1269_AU15-66_AU16Open-66_AU26-33_AU27i-100	1	1	3	10	30	test	id-1269_AU15-66_AU16Open-66_AU26-33_AU27i-100	arousal	0.1032629823628105		1.0937210690162829
id-1367_AU11-100_AU16Open-66_AU25-100	1	1	3	10	31	test_extra	id-1367_AU11-100_AU16Open-66_AU25-100	valence	-0.5842510844211647		1.2604755253878466
id-1367_AU11-100_AU16Open-66_AU25-100	1	1	3	10	31	test_extra	id-1367_AU11-100_AU16Open-66_AU25-100	arousal	0.1711991549699227		1.2604755253878466
id-1362_AU26-66_AU9-66	1	1	3	10	32	train	id-1362_AU26-66_AU9-66	valence	-0.5924034251340181		1.0686099936574465
id-1362_AU26-66_AU9-66	1	1	3	10	32	train	id-1362_AU26-66_AU9-66	arousal	0.20652596472562101		1.0686099936574465
id-1355_AU26-33_AU7-100	1	1	3	10	33	train	id-1355_AU26-33_AU7-100	valence	-0.201091070917052		4.03552932362345
id-1355_AU26-33_AU7-100	1	1	3	10	33	train	id-1355_AU26-33_AU7-100	arousal	-0.21739575234275896		4.03552932362345
id-1260_AU14-33_AU20-33_AU25-33	1	1	3	10	34	test_extra	id-1260_AU14-33_AU20-33_AU25-33	valence	0.0842408540328191		0.8103171869706784
id-1260_AU14-33_AU20-33_AU25-33	1	1	3	10	34	test_extra	id-1260_AU14-33_AU20-33_AU25-33	arousal	-0.5625115091868887		0.8103171869706784
id-1378_AU15-100_AU16Open-66_AU26-66_AU7-100	1	1	3	10	35	test_extra	id-1378_AU15-100_AU16Open-66_AU26-66_AU7-100	valence	-0.13315489830993985		0.8520822460232012
id-1378_AU15-100_AU16Open-66_AU26-66_AU7-100	1	1	3	10	35	test_extra	id-1378_AU15-100_AU16Open-66_AU26-66_AU7-100	arousal	0.30163660637557804		0.8520822460232012
id-1290_AU24-100_AU9-33	1	1	3	10	36	test_extra	id-1290_AU24-100_AU9-33	valence	-0.7690374739125099		1.6937462437826982
id-1290_AU24-100_AU9-33	1	1	3	10	36	test_extra	id-1290_AU24-100_AU9-33	arousal	0.1277200045013709		1.6937462437826982
id-1309_AU20-100_AU25-66	1	1	3	11	1	test_extra	id-1309_AU20-100_AU25-66	emotion	Boos	0.18467100797186906	2.694959401915185
id-1307_AU1-33_AU10Open-100_AU4-66_AU9-33	1	1	3	11	2	train	id-1307_AU1-33_AU10Open-100_AU4-66_AU9-33	emotion	Walging	0.41671306147935466	0.9695675101820598
id-1307_AU1-66_AU10Open-100_AU6-33	1	1	3	11	3	test_extra	id-1307_AU1-66_AU10Open-100_AU6-33	emotion	Geen van allen	0.0	1.1362087706593231
id-1311_AU15-66_AU16Open-100_AU17-66_AU20-100	1	1	3	11	4	train	id-1311_AU15-66_AU16Open-100_AU17-66_AU20-100	emotion	Walging	0.1309079008437983	4.678415595557453
id-1290_AU10Open-33_AU14-66_AU24-66	1	1	3	11	5	test	id-1290_AU10Open-33_AU14-66_AU24-66	emotion	Boos	0.1628672685464511	0.8613531407027041
id-1291_AU13-66_AU7-33_AU9-66	1	1	3	11	6	train	id-1291_AU13-66_AU7-33_AU9-66	emotion	Walging	0.2780200844624339	0.9864146815380082
id-1360_AU24-66_AU26-33_AU5-100_AU7-33	1	1	3	11	7	test_extra	id-1360_AU24-66_AU26-33_AU5-100_AU7-33	emotion	Bang	0.4118079703694215	3.4199917834866937
id-1306_AU24-66_AU43-100_AU7-100	1	1	3	11	8	test	id-1306_AU24-66_AU43-100_AU7-100	emotion	Blij	0.14922541598094444	1.7030506444471032
id-1347_AU13-100_AU14-66_AU17-100_AU27i-66_AU7-100	1	1	3	11	9	test	id-1347_AU13-100_AU14-66_AU17-100_AU27i-66_AU7-100	emotion	Verrassing	0.5906765984228994	1.1119933012178078
id-1344_AU13-66_AU14-66_AU24-33_AU9-33	1	1	3	11	10	test	id-1344_AU13-66_AU14-66_AU24-33_AU9-33	emotion	Boos	0.4530545655239698	1.1364327476021572
id-1310_AU14-100_AU43-100_AU9-33	1	1	3	11	11	test_extra	id-1310_AU14-100_AU43-100_AU9-33	emotion	Boos	0.09654915823515896	1.1780372194143638
id-1273_AU13-33_AU4-100_AU9-100	1	1	3	11	12	test_extra	id-1273_AU13-33_AU4-100_AU9-100	emotion	Boos	0.6010699309018052	1.0447181135468782
id-1311_AU16Open-100_AU43-100_AU6-66_AU9-100	1	1	3	11	13	test	id-1311_AU16Open-100_AU43-100_AU6-66_AU9-100	emotion	Geen van allen	0.0	1.5613966984828949
id-1366_AU22-66_AU43-66	1	1	3	11	14	test_extra	id-1366_AU22-66_AU43-66	emotion	Geen van allen	0.0	1.0696347938219333
id-1360_AU6-33_AU9-33	1	1	3	11	15	test_extra	id-1360_AU6-33_AU9-33	emotion	Walging	0.19229813796519746	0.7863764062331029
id-1335_AU24-100_AU25-100_AU27i-66	1	1	3	11	16	test_extra	id-1335_AU24-100_AU25-100_AU27i-66	emotion	Verrassing	0.3185633476134268	1.8780620621391788
id-1293_AU22-66_AU25-100_AU5-33_AU9-33	1	1	3	11	17	test	id-1293_AU22-66_AU25-100_AU5-33_AU9-33	emotion	Boos	0.4247978234547147	0.9197875780937466
id-1315_AU12-66_AU17-33_AU2-100_AU4-100	1	1	3	11	18	test	id-1315_AU12-66_AU17-33_AU2-100_AU4-100	emotion	Walging	0.25564552702618354	1.4198148960367691
id-1360_AU11-33_AU25-100	1	1	3	11	19	test_extra	id-1360_AU11-33_AU25-100	emotion	Verdrietig	0.4515118571484653	0.7362925054358129
id-1366_AU10Open-66_AU12-33_AU6-100_AU7-33	1	1	3	11	20	test_extra	id-1366_AU10Open-66_AU12-33_AU6-100_AU7-33	emotion	Blij	0.16986913770106052	1.7698117718291542
id-1355_AU10Open-100_AU12-100_AU27i-66	1	1	3	11	21	test_extra	id-1355_AU10Open-100_AU12-100_AU27i-66	emotion	Verrassing	0.21509459562585986	1.2364306044264597
id-1266_AU25-100_AU4-100	1	1	3	11	22	test_extra	id-1266_AU25-100_AU4-100	emotion	Geen van allen	0.0	1.294782031494833
id-1345_AU11-100_AU20-66	1	1	3	11	23	test_extra	id-1345_AU11-100_AU20-66	emotion	Bang	0.14951165100003627	4.361733629835726
id-1361_AU7-66	1	1	3	11	24	train	id-1361_AU7-66	emotion	Boos	0.030431509685830863	1.152942444265136
id-1309_AU10Open-100_AU2-100_AU27i-33	1	1	3	11	25	test_extra	id-1309_AU10Open-100_AU2-100_AU27i-33	emotion	Verrassing	0.5964147304081364	0.8865562820546984
id-1270_AU5-33_AU7-100	1	1	3	11	26	train	id-1270_AU5-33_AU7-100	emotion	Boos	0.20549570927040994	1.3863840733683899
id-1363_AU13-100_AU20-66_AU22-66_AU5-66	1	1	3	11	27	test_extra	id-1363_AU13-100_AU20-66_AU22-66_AU5-66	emotion	Boos	0.3818138629797999	0.9696502186488942
id-1355_AU12-100_AU26-33_AU5-66	1	1	3	11	28	train	id-1355_AU12-100_AU26-33_AU5-66	emotion	Bang	0.4217737170238352	0.9531492758023888
id-1273_AU11-100_AU15-33_AU20-33	1	1	3	11	29	test_extra	id-1273_AU11-100_AU15-33_AU20-33	emotion	Blij	0.17514403633605524	0.6614295705703626
id-1280_AU13-100_AU17-100_AU4-100	1	1	3	11	30	test_extra	id-1280_AU13-100_AU17-100_AU4-100	emotion	Verdrietig	0.3402432126503533	0.7280539573130227
id-1367_AU17-66_AU9-100	1	1	3	11	31	test_extra	id-1367_AU17-66_AU9-100	emotion	Boos	0.1628672685464511	2.1365356804026305
id-1345_AU10Open-33_AU27i-100	1	1	3	11	32	test_extra	id-1345_AU10Open-33_AU27i-100	emotion	Walging	0.21656614779738198	1.778247129880583
id-1370_AU2-33_AU25-66_AU4-100	1	1	3	11	33	train	id-1370_AU2-33_AU25-66_AU4-100	emotion	Blij	0.28295401909813994	0.8031432839670742
id-1339_AU14-100_AU15-66_AU26-33	1	1	3	11	34	test_extra	id-1339_AU14-100_AU15-66_AU26-33	emotion	Verrassing	0.454730946366684	0.8529727203931543
id-1294_AU11-100_AU2-100_AU24-33	1	1	3	11	35	train	id-1294_AU11-100_AU2-100_AU24-33	emotion	Blij	0.1130621224154112	3.1698638721263706
id-1355_AU10Open-33	1	1	3	11	36	test_extra	id-1355_AU10Open-33	emotion	Bang	0.3793803431228335	1.6196820191489678
id-1358_AU15-66_AU2-33_AU26-66	1	1	3	12	1	test_extra	id-1358_AU15-66_AU2-33_AU26-66	valence	-0.17663404877849165		6.410530719706003
id-1358_AU15-66_AU2-33_AU26-66	1	1	3	12	1	test_extra	id-1358_AU15-66_AU2-33_AU26-66	arousal	0.3559855444612677		6.410530719706003
id-1378_AU1-66_AU20-66_AU7-33	1	1	3	12	2	test	id-1378_AU1-66_AU20-66_AU7-33	valence	0.6141430003682941		1.5352922159563605
id-1378_AU1-66_AU20-66_AU7-33	1	1	3	12	2	test	id-1378_AU1-66_AU20-66_AU7-33	arousal	-0.2282655399598969		1.5352922159563605
id-1376_AU1-33_AU5-100_AU7-66	1	1	3	12	3	train	id-1376_AU1-33_AU5-100_AU7-66	valence	0.42120427016409545		1.0188849993110125
id-1376_AU1-33_AU5-100_AU7-66	1	1	3	12	3	train	id-1376_AU1-33_AU5-100_AU7-66	arousal	0.30163660637557804		1.0188849993110125
id-1361_AU16Open-33_AU24-66_AU25-100	1	1	3	12	4	train	id-1361_AU16Open-33_AU24-66_AU25-100	valence	-0.6576221508368458		1.285969353796645
id-1361_AU16Open-33_AU24-66_AU25-100	1	1	3	12	4	train	id-1361_AU16Open-33_AU24-66_AU25-100	arousal	0.11413276997994845		1.285969353796645
id-1269_AU11-100_AU13-33_AU25-100	1	1	3	12	5	test_extra	id-1269_AU11-100_AU13-33_AU25-100	valence	-0.6793617260711217		5.802689896678202
id-1269_AU11-100_AU13-33_AU25-100	1	1	3	12	5	test_extra	id-1269_AU11-100_AU13-33_AU25-100	arousal	-0.1440246859270778		5.802689896678202
id-1367_AU17-66	1	1	3	12	6	test_extra	id-1367_AU17-66	valence	0.11685021688423293		2.393966085302054
id-1367_AU17-66	1	1	3	12	6	test_extra	id-1367_AU17-66	arousal	-0.8179515181896305		2.393966085302054
id-1354_AU1-66_AU10Open-100	1	1	3	12	7	test	id-1354_AU1-66_AU10Open-100	valence	-0.5380544870483285		1.8771471374575408
id-1354_AU1-66_AU10Open-100	1	1	3	12	7	test	id-1354_AU1-66_AU10Open-100	arousal	0.1250025575970864		1.8771471374575408
id-1318_AU22-100_AU26-100_AU27i-33_AU4-33_AU6-33	1	1	3	12	8	test	id-1318_AU22-100_AU26-100_AU27i-33_AU4-33_AU6-33	valence	-0.5407719339526129		1.9937908278725445
id-1318_AU22-100_AU26-100_AU27i-33_AU4-33_AU6-33	1	1	3	12	8	test	id-1318_AU22-100_AU26-100_AU27i-33_AU4-33_AU6-33	arousal	0.31522384089700045		1.9937908278725445
id-1297_AU20-33_AU22-33_AU26-66	1	1	3	12	9	test_extra	id-1297_AU20-33_AU22-33_AU26-66	valence	-0.4429438453983714		1.9604119243867901
id-1297_AU20-33_AU22-33_AU26-66	1	1	3	12	9	test_extra	id-1297_AU20-33_AU22-33_AU26-66	arousal	-0.4510961861112248		1.9604119243867901
id-1260_AU12-66_AU25-33	1	1	3	12	10	test	id-1260_AU12-66_AU25-33	valence	-0.19837362401276756		0.9104025819533492
id-1260_AU12-66_AU25-33	1	1	3	12	10	test	id-1260_AU12-66_AU25-33	arousal	0.19837362401276756		0.9104025819533492
id-1377_AU17-66_AU24-33_AU4-100	1	1	3	12	11	test	id-1377_AU17-66_AU24-33_AU4-100	valence	-0.33424596922699185		1.4271578382422376
id-1377_AU17-66_AU24-33_AU4-100	1	1	3	12	11	test	id-1377_AU17-66_AU24-33_AU4-100	arousal	0.5380544870483285		1.4271578382422376
id-1270_AU15-33_AU22-66	1	1	3	12	12	train	id-1270_AU15-33_AU22-66	valence	0.05978383189425871		2.9773348615281066
id-1270_AU15-33_AU22-66	1	1	3	12	12	train	id-1270_AU15-33_AU22-66	arousal	-0.8125166243810616		2.9773348615281066
id-1370_AU2-33_AU27i-66	1	1	3	12	13	test_extra	id-1370_AU2-33_AU27i-66	valence	0.9293668412652946		1.1774525248874852
id-1370_AU2-33_AU27i-66	1	1	3	12	13	test_extra	id-1370_AU2-33_AU27i-66	arousal	0.7119710889225355		1.1774525248874852
id-1296_AU13-66_AU14-100_AU17-66	1	1	3	12	14	test_extra	id-1296_AU13-66_AU14-100_AU17-66	valence	-0.16032936735278475		3.952488513635217
id-1296_AU13-66_AU14-100_AU17-66	1	1	3	12	14	test_extra	id-1296_AU13-66_AU14-100_AU17-66	arousal	-0.20380851782133647		3.952488513635217
id-1377_AU13-66_AU14-33_AU22-33_AU7-100_AU9-66	1	1	3	12	15	train	id-1377_AU13-66_AU14-33_AU22-33_AU7-100_AU9-66	valence	-0.01630468142570692		2.277312131792314
id-1377_AU13-66_AU14-33_AU22-33_AU7-100_AU9-66	1	1	3	12	15	train	id-1377_AU13-66_AU14-33_AU22-33_AU7-100_AU9-66	arousal	-0.2663097966198797		2.277312131792314
id-1344_AU1-33_AU11-33_AU4-33_AU7-66	1	1	3	12	16	train	id-1344_AU1-33_AU11-33_AU4-33_AU7-66	valence	-0.14674213283136228		3.119007522545872
id-1344_AU1-33_AU11-33_AU4-33_AU7-66	1	1	3	12	16	train	id-1344_AU1-33_AU11-33_AU4-33_AU7-66	arousal	-0.5000102303883456		3.119007522545872
id-1291_AU2-66_AU43-100_AU9-100	1	1	3	12	17	train	id-1291_AU2-66_AU43-100_AU9-100	valence	-0.6141430003682941		1.0019028984488614
id-1291_AU2-66_AU43-100_AU9-100	1	1	3	12	17	train	id-1291_AU2-66_AU43-100_AU9-100	arousal	0.19837362401276756		1.0019028984488614
id-1295_AU12-33_AU2-66_AU27i-66	1	1	3	12	18	test_extra	id-1295_AU12-33_AU2-66_AU27i-66	valence	0.10869787617137948		0.8520354583879453
id-1295_AU12-33_AU2-66_AU27i-66	1	1	3	12	18	test_extra	id-1295_AU12-33_AU2-66_AU27i-66	arousal	0.3423983099398454		0.8520354583879453
id-1295_AU11-66_AU13-66_AU17-33_AU9-66	1	1	3	12	19	test_extra	id-1295_AU11-66_AU13-66_AU17-33_AU9-66	valence	-0.13858979211850886		0.6525193934749041
id-1295_AU11-66_AU13-66_AU17-33_AU9-66	1	1	3	12	19	test_extra	id-1295_AU11-66_AU13-66_AU17-33_AU9-66	arousal	-0.30707150018414703		0.6525193934749041
id-1290_AU22-33	1	1	3	12	20	test_extra	id-1290_AU22-33	valence	0.0		5.86932122610142
id-1290_AU22-33	1	1	3	12	20	test_extra	id-1290_AU22-33	arousal	-0.7445804517739495		5.86932122610142
id-1290_AU13-100_AU20-33_AU25-33	1	1	3	12	21	train	id-1290_AU13-100_AU20-33_AU25-33	valence	-0.28261447804558665		1.2687047159824942
id-1290_AU13-100_AU20-33_AU25-33	1	1	3	12	21	train	id-1290_AU13-100_AU20-33_AU25-33	arousal	0.1847863894913451		1.2687047159824942
id-1266_AU15-33_AU5-66_AU9-33	1	1	3	12	22	test_extra	id-1266_AU15-33_AU5-66_AU9-33	valence	-0.3641378851741212		0.9186960678161996
id-1266_AU15-33_AU5-66_AU9-33	1	1	3	12	22	test_extra	id-1266_AU15-33_AU5-66_AU9-33	arousal	0.1630468142570692		0.9186960678161996
id-1274_AU16Open-33_AU27i-100_AU6-100	1	1	3	12	23	test_extra	id-1274_AU16Open-33_AU27i-100_AU6-100	valence	-0.5434893808568974		0.7769895989567885
id-1274_AU16Open-33_AU27i-100_AU6-100	1	1	3	12	23	test_extra	id-1274_AU16Open-33_AU27i-100_AU6-100	arousal	0.3695727789826902		0.7769895989567885
id-1355_AU10Open-100_AU2-33_AU20-66	1	1	3	12	24	test_extra	id-1355_AU10Open-100_AU2-33_AU20-66	valence	-0.6304476817940009		0.7603501043358847
id-1355_AU10Open-100_AU2-33_AU20-66	1	1	3	12	24	test_extra	id-1355_AU10Open-100_AU2-33_AU20-66	arousal	0.524467252526906		0.7603501043358847
id-1274_AU14-100_AU25-100_AU27i-66_AU5-33	1	1	3	12	25	test_extra	id-1274_AU14-100_AU25-100_AU27i-66_AU5-33	valence	-0.17935149568277614		0.7186695648833847
id-1274_AU14-100_AU25-100_AU27i-66_AU5-33	1	1	3	12	25	test_extra	id-1274_AU14-100_AU25-100_AU27i-66_AU5-33	arousal	0.11685021688423293		0.7186695648833847
id-1296_AU12-66_AU6-66	1	1	3	12	26	train	id-1296_AU12-66_AU6-66	valence	-0.0407617035642673		3.9024526078983395
id-1296_AU12-66_AU6-66	1	1	3	12	26	train	id-1296_AU12-66_AU6-66	arousal	-0.3532680975569833		3.9024526078983395
id-1358_AU12-33_AU25-33_AU6-33_AU9-33	1	1	3	12	27	train	id-1358_AU12-33_AU25-33_AU6-33_AU9-33	valence	-0.3831600135041127		0.7186245883822266
id-1358_AU12-33_AU25-33_AU6-33_AU9-33	1	1	3	12	27	train	id-1358_AU12-33_AU25-33_AU6-33_AU9-33	arousal	-0.10869787617137948		0.7186245883822266
id-1273_AU1-33_AU25-100_AU4-33	1	1	3	12	28	train	id-1273_AU1-33_AU25-100_AU4-33	valence	0.19293873020419855		2.0354704617575408
id-1273_AU1-33_AU25-100_AU4-33	1	1	3	12	28	train	id-1273_AU1-33_AU25-100_AU4-33	arousal	-0.6114255534640095		2.0354704617575408
id-1373_AU11-33_AU13-100_AU16Open-66_AU43-33	1	1	3	12	29	test	id-1373_AU11-33_AU13-100_AU16Open-66_AU43-33	valence	0.029891915947129363		1.5772411051420931
id-1373_AU11-33_AU13-100_AU16Open-66_AU43-33	1	1	3	12	29	test	id-1373_AU11-33_AU13-100_AU16Open-66_AU43-33	arousal	-0.524467252526906		1.5772411051420931
id-1290_AU24-33_AU25-66_AU4-66	1	1	3	12	30	test_extra	id-1290_AU24-33_AU25-66_AU4-66	valence	-0.4918578896754921		1.177163648964779
id-1290_AU24-33_AU25-66_AU4-66	1	1	3	12	30	test_extra	id-1290_AU24-33_AU25-66_AU4-66	arousal	0.14130723902279332		1.177163648964779
id-1358_AU15-33_AU22-100	1	1	3	12	31	train	id-1358_AU15-33_AU22-100	valence	-0.010869787617137949		2.3022903906348797
id-1358_AU15-33_AU22-100	1	1	3	12	31	train	id-1358_AU15-33_AU22-100	arousal	0.4728357613455008		2.3022903906348797
id-1310_AU15-66_AU25-100_AU4-100_AU43-33	1	1	3	12	32	train	id-1310_AU15-66_AU25-100_AU4-100_AU43-33	valence	-0.5163149118140525		2.460591981322977
id-1310_AU15-66_AU25-100_AU4-100_AU43-33	1	1	3	12	32	train	id-1310_AU15-66_AU25-100_AU4-100_AU43-33	arousal	0.1875038363956296		2.460591981322977
id-1347_AU4-33_AU43-66_AU9-66	1	1	3	12	33	train	id-1347_AU4-33_AU43-66_AU9-66	valence	0.0		2.5021554007571467
id-1347_AU4-33_AU43-66_AU9-66	1	1	3	12	33	train	id-1347_AU4-33_AU43-66_AU9-66	arousal	-0.3587029913655523		2.5021554007571467
id-1310_AU2-100_AU25-66_AU6-66_AU7-100	1	1	3	12	34	test_extra	id-1310_AU2-100_AU25-66_AU6-66_AU7-100	valence	-0.3260936285141384		3.1939918034095167
id-1310_AU2-100_AU25-66_AU6-66_AU7-100	1	1	3	12	34	test_extra	id-1310_AU2-100_AU25-66_AU6-66_AU7-100	arousal	-0.14945957973564675		3.1939918034095167
id-1323_AU12-66_AU16Open-33_AU7-66_AU9-100	1	1	3	12	35	test	id-1323_AU12-66_AU16Open-33_AU7-66_AU9-100	valence	-0.30163660637557804		1.0937732900547417
id-1323_AU12-66_AU16Open-33_AU7-66_AU9-100	1	1	3	12	35	test	id-1323_AU12-66_AU16Open-33_AU7-66_AU9-100	arousal	0.6739268322625528		1.0937732900547417
id-1376_AU2-33	1	1	3	12	36	test_extra	id-1376_AU2-33	valence	0.8424085403281909		2.2188653183175115
id-1376_AU2-33	1	1	3	12	36	test_extra	id-1376_AU2-33	arousal	-0.17935149568277614		2.2188653183175115
id-1315_AU15-33_AU20-100	1	1	4	13	1	test_extra	id-1315_AU15-33_AU20-100	emotion	Walging	0.10815024337662822	1.6781940334594765
id-1290_AU24-100_AU9-33	1	1	4	13	2	test_extra	id-1290_AU24-100_AU9-33	emotion	Walging	0.6029659187101203	0.8946931048003535
id-1345_AU17-66_AU25-66_AU6-100	1	1	4	13	3	test	id-1345_AU17-66_AU25-66_AU6-100	emotion	Walging	0.14385011700846442	1.3032859107943295
id-1269_AU13-33_AU15-100	1	1	4	13	4	test_extra	id-1269_AU13-33_AU15-100	emotion	Boos	0.13864359584252264	0.736464865050948
id-1269_AU15-66_AU16Open-66_AU26-33_AU27i-100	1	1	4	13	5	test	id-1269_AU15-66_AU16Open-66_AU26-33_AU27i-100	emotion	Verrassing	0.4864110157435703	1.3950099023768416
id-1378_AU15-100_AU16Open-66_AU26-66_AU7-100	1	1	4	13	6	test_extra	id-1378_AU15-100_AU16Open-66_AU26-66_AU7-100	emotion	Verrassing	0.5833752074673894	0.7697604563572895
id-1339_AU22-33	1	1	4	13	7	test_extra	id-1339_AU22-33	emotion	Blij	0.1319868060554099	1.0697172004329332
id-1280_AU1-66_AU17-100_AU26-33	1	1	4	13	8	train	id-1280_AU1-66_AU17-100_AU26-33	emotion	Bang	0.2364174741452193	3.0284257530020118
id-1306_AU16Open-66_AU17-33_AU26-100	1	1	4	13	9	test_extra	id-1306_AU16Open-66_AU17-33_AU26-100	emotion	Geen van allen	0.0	2.3116355418205785
id-1339_AU10Open-66_AU20-66_AU27i-100	1	1	4	13	10	test_extra	id-1339_AU10Open-66_AU20-66_AU27i-100	emotion	Verrassing	0.12495427257927755	1.1779771501260257
id-1310_AU12-33_AU14-33_AU22-100_AU6-100	1	1	4	13	11	test	id-1310_AU12-33_AU14-33_AU22-100_AU6-100	emotion	Blij	0.10864354939949472	0.8949584359770597
id-1362_AU26-66_AU9-66	1	1	4	13	12	train	id-1362_AU26-66_AU9-66	emotion	Verrassing	0.19012150979089004	2.3866922680563216
id-1260_AU14-33_AU20-33_AU25-33	1	1	4	13	13	test_extra	id-1260_AU14-33_AU20-33_AU25-33	emotion	Verdrietig	0.3324804889183923	1.0448020294361413
id-1264_AU14-66_AU15-66_AU20-66_AU6-33	1	1	4	13	14	test_extra	id-1264_AU14-66_AU15-66_AU20-66_AU6-33	emotion	Verdrietig	0.2849280791524633	0.9449958509931092
id-1264_AU10Open-33_AU25-66_AU4-66	1	1	4	13	15	test	id-1264_AU10Open-33_AU25-66_AU4-66	emotion	Walging	0.2774659715460148	0.9363603626015902
id-1367_AU43-100	1	1	4	13	16	train	id-1367_AU43-100	emotion	Geen van allen	0.0	2.1032153369260413
id-1377_AU2-33_AU6-33	1	1	4	13	17	train	id-1377_AU2-33_AU6-33	emotion	Blij	0.5082020001193072	0.8030213342563002
id-1295_AU11-33_AU12-100_AU13-100_AU20-33_AU9-66	1	1	4	13	18	test	id-1295_AU11-33_AU12-100_AU13-100_AU20-33_AU9-66	emotion	Boos	0.7504430348353001	0.7697299689298234
id-1355_AU26-33_AU7-100	1	1	4	13	19	train	id-1355_AU26-33_AU7-100	emotion	Verrassing	0.3911085720190075	2.12823042216678
id-1358_AU11-100_AU12-100_AU14-100_AU16Open-66_AU6-100	1	1	4	13	20	test	id-1358_AU11-100_AU12-100_AU14-100_AU16Open-66_AU6-100	emotion	Blij	0.08713998086868646	0.8867265286799011
id-1341_AU16Open-33_AU27i-100	1	1	4	13	21	test_extra	id-1341_AU16Open-33_AU27i-100	emotion	Geen van allen	0.0	1.0031528829786112
id-1264_AU14-33_AU20-100_AU22-66_AU6-100	1	1	4	13	22	train	id-1264_AU14-33_AU20-100_AU22-66_AU6-100	emotion	Blij	0.2962485501759699	0.8363504315475438
id-1345_AU14-100_AU16Open-100	1	1	4	13	23	test_extra	id-1345_AU14-100_AU16Open-100	emotion	Blij	0.2016679774110738	0.719673537003473
id-1367_AU11-100_AU16Open-66_AU25-100	1	1	4	13	24	test_extra	id-1367_AU11-100_AU16Open-66_AU25-100	emotion	Boos	0.182605141751366	1.2364728642269256
id-1362_AU17-33_AU5-33	1	1	4	13	25	test_extra	id-1362_AU17-33_AU5-33	emotion	Boos	0.09968086959722308	2.6368002569397504
id-1270_AU22-66_AU26-100	1	1	4	13	26	test_extra	id-1270_AU22-66_AU26-100	emotion	Geen van allen	0.0	0.5444921745411193
id-1345_AU14-100	1	1	4	13	27	test_extra	id-1345_AU14-100	emotion	Blij	0.28838692683473005	1.1030632016445452
id-1323_AU14-66_AU24-100_AU25-66	1	1	4	13	28	test_extra	id-1323_AU14-66_AU24-100_AU25-66	emotion	Boos	0.14718243847721213	0.8447245128872964
id-1376_AU10Open-100_AU11-100_AU16Open-66_AU22-33	1	1	4	13	29	train	id-1376_AU10Open-100_AU11-100_AU16Open-66_AU22-33	emotion	Boos	0.3954078099742571	0.6447242714029926
id-1339_AU17-100_AU2-33_AU22-33_AU25-33	1	1	4	13	30	train	id-1339_AU17-100_AU2-33_AU22-33_AU25-33	emotion	Blij	0.4253159033193743	1.1946993532137642
id-1318_AU1-100_AU13-66_AU2-100	1	1	4	13	31	train	id-1318_AU1-100_AU13-66_AU2-100	emotion	Blij	0.3383659645331715	1.086386578769634
id-1370_AU10Open-100_AU2-33_AU27i-66_AU5-66	1	1	4	13	32	test	id-1370_AU10Open-100_AU2-33_AU27i-66_AU5-66	emotion	Verrassing	0.11377983697310595	1.0204552527566193
id-1290_AU14-66_AU16Open-100_AU27i-33	1	1	4	13	33	train	id-1290_AU14-66_AU16Open-100_AU27i-33	emotion	Geen van allen	0.0	1.353049542673034
id-1376_AU13-66_AU22-100_AU27i-33_AU6-33	1	1	4	13	34	test_extra	id-1376_AU13-66_AU22-100_AU27i-33_AU6-33	emotion	Verrassing	0.12433321450252564	0.8197097295042113
id-1335_AU1-33_AU14-66_AU27i-66_AU7-100	1	1	4	13	35	test_extra	id-1335_AU1-33_AU14-66_AU27i-66_AU7-100	emotion	Verrassing	0.4427015725093019	0.9031547242984744
id-1279_AU1-100_AU15-66_AU16Open-66_AU27i-100_AU43-33	1	1	4	13	36	test_extra	id-1279_AU1-100_AU15-66_AU16Open-66_AU27i-100_AU43-33	emotion	Geen van allen	0.0	0.853033393392252
id-1291_AU14-33_AU7-33	1	1	4	14	1	test_extra	id-1291_AU14-33_AU7-33	valence	0.1440246859270778		2.677431244059335
id-1291_AU14-33_AU7-33	1	1	4	14	1	test_extra	id-1291_AU14-33_AU7-33	arousal	-0.6793617260711217		2.677431244059335
id-1280_AU11-33_AU17-66_AU2-66_AU26-66_AU9-66	1	1	4	14	2	test	id-1280_AU11-33_AU17-66_AU2-66_AU26-66_AU9-66	valence	-0.23370043376846586		2.5105865328278014
id-1280_AU11-33_AU17-66_AU2-66_AU26-66_AU9-66	1	1	4	14	2	test	id-1280_AU11-33_AU17-66_AU2-66_AU26-66_AU9-66	arousal	0.7065361951139666		2.5105865328278014
id-1373_AU22-66_AU4-100	1	1	4	14	3	train	id-1373_AU22-66_AU4-100	valence	-0.3750076727912592		2.3522894699744943
id-1373_AU22-66_AU4-100	1	1	4	14	3	train	id-1373_AU22-66_AU4-100	arousal	0.8505608810410444		2.3522894699744943
id-1354_AU15-33_AU17-66_AU25-100_AU9-33	1	1	4	14	4	train	id-1354_AU15-33_AU17-66_AU25-100_AU9-33	valence	-0.17935149568277614		2.4689222935840007
id-1354_AU15-33_AU17-66_AU25-100_AU9-33	1	1	4	14	4	train	id-1354_AU15-33_AU17-66_AU25-100_AU9-33	arousal	-0.7282757703482424		2.4689222935840007
id-1307_AU16Open-66_AU17-66_AU43-33	1	1	4	14	5	test_extra	id-1307_AU16Open-66_AU17-66_AU43-33	valence	0.11413276997994845		1.5104187010483656
id-1307_AU16Open-66_AU17-66_AU43-33	1	1	4	14	5	test_extra	id-1307_AU16Open-66_AU17-66_AU43-33	arousal	-0.6684919384539837		1.5104187010483656
id-1370_AU26-100_AU4-33_AU6-33	1	1	4	14	6	test_extra	id-1370_AU26-100_AU4-33_AU6-33	valence	0.7581676862953719		3.4105642256899955
id-1370_AU26-100_AU4-33_AU6-33	1	1	4	14	6	test_extra	id-1370_AU26-100_AU4-33_AU6-33	arousal	0.1684817080656382		3.4105642256899955
id-1289_AU11-100_AU7-100	1	1	4	14	7	test_extra	id-1289_AU11-100_AU7-100	valence	-0.5434893808568974		2.3688535006658644
id-1289_AU11-100_AU7-100	1	1	4	14	7	test_extra	id-1289_AU11-100_AU7-100	arousal	-0.19565617710848307		2.3688535006658644
id-1294_AU16Open-66_AU7-100	1	1	4	14	8	train	id-1294_AU16Open-66_AU7-100	valence	0.4483787392069404		2.902247949719822
id-1294_AU16Open-66_AU7-100	1	1	4	14	8	train	id-1294_AU16Open-66_AU7-100	arousal	-0.6929489605925442		2.902247949719822
id-1358_AU1-66_AU13-100_AU24-33_AU26-33	1	1	4	14	9	test_extra	id-1358_AU1-66_AU13-100_AU24-33_AU26-33	valence	-0.3451157568441299		2.185479170295366
id-1358_AU1-66_AU13-100_AU24-33_AU26-33	1	1	4	14	9	test_extra	id-1358_AU1-66_AU13-100_AU24-33_AU26-33	arousal	0.720123429635389		2.185479170295366
id-1295_AU11-66_AU24-66_AU43-100_AU6-33	1	1	4	14	10	train	id-1295_AU11-66_AU24-66_AU43-100_AU6-33	valence	-0.41305192945124203		0.9938336913846796
id-1295_AU11-66_AU24-66_AU43-100_AU6-33	1	1	4	14	10	train	id-1295_AU11-66_AU24-66_AU43-100_AU6-33	arousal	0.40761703564267293		0.9938336913846796
id-1366_AU5-100	1	1	4	14	11	test_extra	id-1366_AU5-100	valence	-0.10869787617137948		1.0102280791625162
id-1366_AU5-100	1	1	4	14	11	test_extra	id-1366_AU5-100	arousal	0.8858876907967428		1.0102280791625162
id-1266_AU13-66_AU17-100_AU2-100_AU9-33	1	1	4	14	12	test	id-1266_AU13-66_AU17-100_AU2-100_AU9-33	valence	-0.0625012787985432		1.0603623898641672
id-1266_AU13-66_AU17-100_AU2-100_AU9-33	1	1	4	14	12	test	id-1266_AU13-66_AU17-100_AU2-100_AU9-33	arousal	-0.4864229958669232		1.0603623898641672
id-1380_AU1-100_AU15-66_AU7-66	1	1	4	14	13	test_extra	id-1380_AU1-100_AU15-66_AU7-66	valence	-0.04347915046855179		2.902340921281393
id-1380_AU1-100_AU15-66_AU7-66	1	1	4	14	13	test_extra	id-1380_AU1-100_AU15-66_AU7-66	arousal	-0.5217498056226214		2.902340921281393
id-1297_AU10Open-100_AU6-100	1	1	4	14	14	train	id-1297_AU10Open-100_AU6-100	valence	-0.6467523632197079		0.8270055822176801
id-1297_AU10Open-100_AU6-100	1	1	4	14	14	train	id-1297_AU10Open-100_AU6-100	arousal	-0.1277200045013709		0.8270055822176801
id-1273_AU11-33_AU14-33_AU26-100	1	1	4	14	15	train	id-1273_AU11-33_AU14-33_AU26-100	valence	0.4674008675369317		1.0602787758307386
id-1273_AU11-33_AU14-33_AU26-100	1	1	4	14	15	train	id-1273_AU11-33_AU14-33_AU26-100	arousal	0.7771898146253633		1.0602787758307386
id-1280_AU10Open-100_AU14-33_AU24-100_AU27i-33	1	1	4	14	16	train	id-1280_AU10Open-100_AU14-33_AU24-100_AU27i-33	valence	0.14674213283136228		1.6689626818797478
id-1280_AU10Open-100_AU14-33_AU24-100_AU27i-33	1	1	4	14	16	train	id-1280_AU10Open-100_AU14-33_AU24-100_AU27i-33	arousal	-0.2472876682898883		1.6689626818797478
id-1296_AU1-66_AU11-33	1	1	4	14	17	test_extra	id-1296_AU1-66_AU11-33	valence	0.06521872570282768		5.402710845464753
id-1296_AU1-66_AU11-33	1	1	4	14	17	test_extra	id-1296_AU1-66_AU11-33	arousal	0.2608749028113107		5.402710845464753
id-1289_AU17-33_AU26-66	1	1	4	14	18	test	id-1289_AU17-33_AU26-66	valence	-0.04619659737283628		1.6687450439058011
id-1289_AU17-33_AU26-66	1	1	4	14	18	test	id-1289_AU17-33_AU26-66	arousal	-0.5733812968040267		1.6687450439058011
id-1274_AU10Open-100_AU12-66_AU24-33_AU7-66	1	1	4	14	19	train	id-1274_AU10Open-100_AU12-66_AU24-33_AU7-66	valence	-0.0815234071285346		2.8523424456534485
id-1274_AU10Open-100_AU12-66_AU24-33_AU7-66	1	1	4	14	19	train	id-1274_AU10Open-100_AU12-66_AU24-33_AU7-66	arousal	-0.5108800180054835		2.8523424456534485
id-1294_AU13-66_AU15-33_AU24-100_AU4-66	1	1	4	14	20	test_extra	id-1294_AU13-66_AU15-33_AU24-100_AU4-66	valence	-0.6440349163154233		0.9602779004480908
id-1294_AU13-66_AU15-33_AU24-100_AU4-66	1	1	4	14	20	test_extra	id-1294_AU13-66_AU15-33_AU24-100_AU4-66	arousal	0.1630468142570692		0.9602779004480908
id-1260_AU12-66_AU20-100_AU22-66_AU43-66	1	1	4	14	21	train	id-1260_AU12-66_AU20-100_AU22-66_AU43-66	valence	0.4538136330155093		2.3106376068153622
id-1260_AU12-66_AU20-100_AU22-66_AU43-66	1	1	4	14	21	train	id-1260_AU12-66_AU20-100_AU22-66_AU43-66	arousal	-0.0842408540328191		2.3106376068153622
id-1310_AU13-66	1	1	4	14	22	train	id-1310_AU13-66	valence	-0.6576221508368458		0.8353425353043349
id-1310_AU13-66	1	1	4	14	22	train	id-1310_AU13-66	arousal	-0.07880596022425011		0.8353425353043349
