	rep	session	run	block	trial	data_split	trial_type	rating_type	rating	rating_intensity	rating_RT
id-1291_AU10Open-66_AU15-33_AU20-100_AU4-100	1	1	1	1	1	train	id-1291_AU10Open-66_AU15-33_AU20-100_AU4-100	emotion	Walging	0.6321935259464225	1.2530136520281303
id-1339_AU11-100_AU20-100_AU4-33	1	1	1	1	2	test_extra	id-1339_AU11-100_AU20-100_AU4-33	emotion	Boos	0.5270617154819962	1.3947346099621427
id-1376_AU16Open-100_AU43-66_AU5-33	1	1	1	1	3	train	id-1376_AU16Open-100_AU43-66_AU5-33	emotion	Blij	0.2418172688372072	2.8781562411231785
id-1373_AU1-66	1	1	1	1	4	test_extra	id-1373_AU1-66	emotion	Verrassing	0.1804546016899212	1.619649720587404
id-1293_AU1-33_AU22-33_AU27i-100	1	1	1	1	5	test_extra	id-1293_AU1-33_AU22-33_AU27i-100	emotion	Verrassing	0.6792538415739178	0.9863014856437076
id-1341_AU1-33_AU15-33_AU2-66_AU4-33	1	1	1	1	6	test	id-1341_AU1-33_AU15-33_AU2-66_AU4-33	emotion	Verdrietig	0.5283933880234727	1.7120085147462305
id-1361_AU16Open-33_AU24-66_AU25-100	1	1	1	1	7	test_extra	id-1361_AU16Open-33_AU24-66_AU25-100	emotion	Boos	0.3687104133225816	1.3780087846052993
id-1290_AU22-33	1	1	1	1	8	test_extra	id-1290_AU22-33	emotion	Geen van allen	0.0	0.8778942303597432
id-1311_AU16Open-100_AU43-100_AU6-66_AU9-100	1	1	1	1	9	test	id-1311_AU16Open-100_AU43-100_AU6-66_AU9-100	emotion	Boos	0.6586309257999569	1.2111242284190666
id-1310_AU13-66_AU14-100_AU4-66_AU9-33	1	1	1	1	10	test_extra	id-1310_AU13-66_AU14-100_AU4-66_AU9-33	emotion	Verdrietig	0.5338310829136258	1.9781015750522783
id-1380_AU10Open-33_AU13-33_AU16Open-100_AU22-33_AU43-66	1	1	1	1	11	test	id-1380_AU10Open-33_AU13-33_AU16Open-100_AU22-33_AU43-66	emotion	Blij	0.454755208496036	1.4280697443673491
id-1323_AU22-33_AU5-100_AU9-66	1	1	1	1	12	train	id-1323_AU22-33_AU5-100_AU9-66	emotion	Boos	0.2424073861888888	1.3613152578100198
id-1270_AU26-100	1	1	1	1	13	train	id-1270_AU26-100	emotion	Verrassing	0.599228306785843	1.1197488801908548
id-1294_AU16Open-100_AU20-33_AU43-33	1	1	1	1	14	train	id-1294_AU16Open-100_AU20-33_AU43-33	emotion	Blij	0.37438759716184666	0.9863392176075648
id-1307_AU17-66_AU2-100_AU7-66	1	1	1	1	15	train	id-1307_AU17-66_AU2-100_AU7-66	emotion	Verrassing	0.28678273111070657	7.8289051602541795
id-1274_AU10Open-66_AU2-33_AU43-100_AU9-66	1	1	1	1	16	test	id-1274_AU10Open-66_AU2-33_AU43-100_AU9-66	emotion	Boos	0.9185999817376436	1.7696880109851918
id-1285_AU26-33_AU5-100	1	1	1	1	17	test_extra	id-1285_AU26-33_AU5-100	emotion	Verrassing	0.8763029432198112	1.011442746573266
id-1367_AU17-66	1	1	1	1	18	test_extra	id-1367_AU17-66	emotion	Geen van allen	0.0	1.2449230132078808
id-1297_AU1-66_AU11-66	1	1	1	1	19	test_extra	id-1297_AU1-66_AU11-66	emotion	Walging	0.10092329187416177	1.1697038885959046
id-1339_AU22-33_AU25-100_AU27i-100_AU4-66	1	1	1	1	20	test_extra	id-1339_AU22-33_AU25-100_AU27i-100_AU4-66	emotion	Blij	0.8057643873548256	0.886467838329736
id-1274_AU14-33_AU6-33	1	1	1	1	21	train	id-1274_AU14-33_AU6-33	emotion	Blij	0.07496761255799951	4.161745764436091
id-1269_AU15-66_AU16Open-66_AU26-33_AU27i-100	1	1	1	1	22	test	id-1269_AU15-66_AU16Open-66_AU26-33_AU27i-100	emotion	Verrassing	0.7322057761373283	1.4531147133229751
id-1293_AU1-100_AU12-33_AU13-33_AU22-100	1	1	1	1	23	test_extra	id-1293_AU1-100_AU12-33_AU13-33_AU22-100	emotion	Blij	0.4771261437056041	1.1698517978984455
id-1279_AU12-100	1	1	1	1	24	test_extra	id-1279_AU12-100	emotion	Blij	0.8597304721397453	0.819675317952715
id-1355_AU13-66_AU14-100_AU15-100_AU7-33	1	1	1	1	25	test	id-1355_AU13-66_AU14-100_AU15-100_AU7-33	emotion	Verdrietig	0.6429726601155533	1.4614960392009384
id-1302_AU1-100_AU11-66_AU13-33_AU24-33	1	1	1	1	26	train	id-1302_AU1-100_AU11-66_AU13-33_AU24-33	emotion	Verdrietig	0.7691251702050529	0.8611264470582682
id-1318_AU24-33	1	1	1	1	27	test_extra	id-1318_AU24-33	emotion	Verdrietig	0.02473980743496736	1.1528506801269032
id-1360_AU16Open-33_AU20-66	1	1	1	1	28	test_extra	id-1360_AU16Open-33_AU20-66	emotion	Bang	0.19096564703496144	2.053164338402894
id-1269_AU11-100_AU25-33_AU43-66	1	1	1	1	29	train	id-1269_AU11-100_AU25-33_AU43-66	emotion	Boos	0.4166269092632537	0.8530246395766881
id-1270_AU10Open-33_AU16Open-33_AU22-100_AU7-66	1	1	1	1	30	train	id-1270_AU10Open-33_AU16Open-33_AU22-100_AU7-66	emotion	Walging	0.582188298978015	10.637666280996198
id-1289_AU10Open-33_AU2-66_AU24-66	1	1	1	1	31	train	id-1289_AU10Open-33_AU2-66_AU24-66	emotion	Boos	0.6155055273265816	1.3281153547659414
id-1367_AU11-100_AU16Open-66_AU25-100	1	1	1	1	32	test_extra	id-1367_AU11-100_AU16Open-66_AU25-100	emotion	Boos	0.7092352729591425	1.095304302259137
id-1295_AU24-100_AU25-100	1	1	1	1	33	test_extra	id-1295_AU24-100_AU25-100	emotion	Bang	0.4245683644756815	4.103457425213492
id-1294_AU11-66_AU43-33_AU5-33	1	1	1	1	34	train	id-1294_AU11-66_AU43-33_AU5-33	emotion	Blij	0.06881621884851874	1.3949099881338043
id-1360_AU12-100_AU43-66_AU7-33	1	1	1	1	35	test_extra	id-1360_AU12-100_AU43-66_AU7-33	emotion	Blij	0.3918918950430111	0.9281257386037396
id-1273_AU1-33_AU13-33_AU26-33	1	1	1	1	36	test	id-1273_AU1-33_AU13-33_AU26-33	emotion	Blij	0.4851631984932648	1.286358143961479
id-1279_AU1-33_AU14-33_AU26-33	1	1	1	2	1	test_extra	id-1279_AU1-33_AU14-33_AU26-33	emotion	Blij	0.4061945877812945	1.6865940743909955
id-1354_AU14-66_AU7-100	1	1	1	2	2	train	id-1354_AU14-66_AU7-100	emotion	Verdrietig	0.13418312524945109	1.5198698035910638
id-1378_AU1-66_AU20-66_AU7-33	1	1	1	2	3	test	id-1378_AU1-66_AU20-66_AU7-33	emotion	Bang	0.2478140201617728	1.4447717231214483
id-1362_AU1-100_AU26-66	1	1	1	2	4	test_extra	id-1362_AU1-100_AU26-66	emotion	Verrassing	0.7284800555564187	1.3112600333060982
id-1315_AU5-33_AU6-66	1	1	1	2	5	test_extra	id-1315_AU5-33_AU6-66	emotion	Boos	0.022548007594980213	1.4113898010800767
id-1345_AU12-33_AU27i-66_AU7-100_AU9-66	1	1	1	2	6	test_extra	id-1345_AU12-33_AU27i-66_AU7-100_AU9-66	emotion	Boos	0.5060763302697863	0.6946225309338843
id-1377_AU24-100	1	1	1	2	7	test_extra	id-1377_AU24-100	emotion	Verdrietig	0.23259668515815946	1.311323724862632
id-1335_AU1-33_AU14-66_AU27i-66_AU7-100	1	1	1	2	8	test_extra	id-1335_AU1-33_AU14-66_AU27i-66_AU7-100	emotion	Blij	0.7039579965212929	0.7861934816673966
id-1273_AU10Open-66_AU12-66_AU25-66	1	1	1	2	9	test_extra	id-1273_AU10Open-66_AU12-66_AU25-66	emotion	Blij	0.5156081067719115	1.2868145498077863
id-1367_AU1-100_AU22-33_AU26-100	1	1	1	2	10	test_extra	id-1367_AU1-100_AU22-33_AU26-100	emotion	Verrassing	0.7056649470406774	1.344622938438988
id-1344_AU13-66_AU14-66_AU24-33_AU9-33	1	1	1	2	11	test	id-1344_AU13-66_AU14-66_AU24-33_AU9-33	emotion	Boos	0.5292027236076232	1.6363957702769767
id-1341_AU14-100_AU15-100_AU24-100_AU6-100	1	1	1	2	12	train	id-1341_AU14-100_AU15-100_AU24-100_AU6-100	emotion	Verdrietig	0.1665223808435852	2.6531940410059183
id-1342_AU1-100_AU14-100_AU15-66_AU5-100_AU7-100	1	1	1	2	13	test	id-1342_AU1-100_AU14-100_AU15-66_AU5-100_AU7-100	emotion	Blij	0.1676066109269725	0.8279639741231222
id-1362_AU13-100_AU20-33_AU43-33	1	1	1	2	14	test_extra	id-1362_AU13-100_AU20-33_AU43-33	emotion	Verdrietig	0.0909917109365606	1.61148814567332
id-1307_AU10Open-66_AU17-33_AU22-33_AU9-100	1	1	1	2	15	test	id-1307_AU10Open-66_AU17-33_AU22-33_AU9-100	emotion	Boos	0.8271270275938892	1.2612893284040183
id-1376_AU10Open-100_AU11-66_AU25-33_AU27i-66_AU9-100	1	1	1	2	16	test_extra	id-1376_AU10Open-100_AU11-66_AU25-33_AU27i-66_AU9-100	emotion	Boos	0.5646414697550439	1.7030907912576367
id-1294_AU10Open-66_AU27i-66_AU43-33_AU7-66	1	1	1	2	17	test_extra	id-1294_AU10Open-66_AU27i-66_AU43-33_AU7-66	emotion	Verrassing	0.5424163190527208	4.811963206202564
id-1362_AU5-33_AU6-66_AU7-33	1	1	1	2	18	test	id-1362_AU5-33_AU6-66_AU7-33	emotion	Boos	0.031042510406499708	1.9281930524284687
id-1260_AU9-33	1	1	1	2	19	test_extra	id-1260_AU9-33	emotion	Walging	0.01359804123482818	1.0528990072261877
id-1335_AU12-100_AU20-100_AU5-33	1	1	1	2	20	train	id-1335_AU12-100_AU20-100_AU5-33	emotion	Bang	0.3480743754136197	1.7198190314602468
id-1376_AU11-100_AU17-33_AU24-66_AU43-66	1	1	1	2	21	test_extra	id-1376_AU11-100_AU17-33_AU24-66_AU43-66	emotion	Walging	0.08445264603125187	1.4699202285892168
id-1339_AU11-100_AU15-66_AU43-33	1	1	1	2	22	test_extra	id-1339_AU11-100_AU15-66_AU43-33	emotion	Walging	0.0039443754179296535	1.5362898491057422
id-1363_AU2-100_AU25-100_AU26-100_AU27i-66	1	1	1	2	23	train	id-1363_AU2-100_AU25-100_AU26-100_AU27i-66	emotion	Verrassing	0.7821755350236183	0.9363437605361468
id-1335_AU43-66_AU5-66	1	1	1	2	24	test	id-1335_AU43-66_AU5-66	emotion	Geen van allen	0.0	0.9697205510310596
id-1335_AU11-66_AU17-66_AU25-66_AU6-33	1	1	1	2	25	train	id-1335_AU11-66_AU17-66_AU25-66_AU6-33	emotion	Walging	0.0764811459451075	1.4697511893873525
id-1360_AU1-100_AU11-66	1	1	1	2	26	test	id-1360_AU1-100_AU11-66	emotion	Walging	0.056184690769888634	1.3781524679270658
id-1366_AU15-66_AU22-66_AU24-33_AU5-100	1	1	1	2	27	train	id-1366_AU15-66_AU22-66_AU24-33_AU5-100	emotion	Verdrietig	0.07876466043662304	1.8116190906830525
id-1323_AU22-66_AU7-100	1	1	1	2	28	train	id-1323_AU22-66_AU7-100	emotion	Geen van allen	0.0	0.8112885586724587
id-1290_AU10Open-33_AU2-66_AU9-33	1	1	1	2	29	test_extra	id-1290_AU10Open-33_AU2-66_AU9-33	emotion	Walging	0.2671045984320995	0.8696354579051331
id-1311_AU10Open-100_AU13-100_AU14-33_AU16Open-33	1	1	1	2	30	test_extra	id-1311_AU10Open-100_AU13-100_AU14-33_AU16Open-33	emotion	Blij	0.6919143273556636	1.4448154922010872
id-1291_AU12-33_AU17-100_AU5-66	1	1	1	2	31	test_extra	id-1291_AU12-33_AU17-100_AU5-66	emotion	Blij	0.7654391882923265	1.336397370112536
id-1378_AU11-100_AU12-66_AU15-100_AU43-33	1	1	1	2	32	train	id-1378_AU11-100_AU12-66_AU15-100_AU43-33	emotion	Walging	0.14769442756983608	1.3947367229511656
id-1355_AU11-100_AU15-100_AU2-66_AU25-33	1	1	1	2	33	test_extra	id-1355_AU11-100_AU15-100_AU2-66_AU25-33	emotion	Bang	0.1893459590385792	1.2029723128880505
id-1367_AU1-66_AU10Open-66_AU15-33_AU6-100	1	1	1	2	34	test_extra	id-1367_AU1-66_AU10Open-66_AU15-33_AU6-100	emotion	Bang	0.12157420160109933	0.7280286014329249
id-1341_AU12-33_AU2-66_AU20-33_AU24-66_AU5-33	1	1	1	2	35	train	id-1341_AU12-33_AU2-66_AU20-33_AU24-66_AU5-33	emotion	Blij	0.055823578347213375	0.8696288170785921
id-1315_AU15-33_AU20-100	1	1	1	2	36	test_extra	id-1315_AU15-33_AU20-100	emotion	Verdrietig	0.19775867897416285	1.0279367467383054
id-1295_AU12-66_AU17-66_AU25-66_AU9-100	1	1	1	3	1	train	id-1295_AU12-66_AU17-66_AU25-66_AU9-100	valence	-0.7309932172525271		5.3358926673508895
id-1295_AU12-66_AU17-66_AU25-66_AU9-100	1	1	1	3	1	train	id-1295_AU12-66_AU17-66_AU25-66_AU9-100	arousal	0.7934944960510701		5.3358926673508895
id-1363_AU16Open-66_AU26-66_AU43-66	1	1	1	3	2	train	id-1363_AU16Open-66_AU26-66_AU43-66	valence	0.2255480930556124		1.1271488731272257
id-1363_AU16Open-66_AU26-66_AU43-66	1	1	1	3	2	train	id-1363_AU16Open-66_AU26-66_AU43-66	arousal	0.7472978986782339		1.1271488731272257
id-1380_AU13-66_AU20-66_AU22-100_AU5-100	1	1	1	3	3	test_extra	id-1380_AU13-66_AU20-66_AU22-100_AU5-100	valence	-0.0027174469042844872		1.6103272085802018
id-1380_AU13-66_AU20-66_AU22-100_AU5-100	1	1	1	3	3	test_extra	id-1380_AU13-66_AU20-66_AU22-100_AU5-100	arousal	0.7554502393910874		1.6103272085802018
id-1378_AU26-66_AU4-33_AU43-66	1	1	1	3	4	train	id-1378_AU26-66_AU4-33_AU43-66	valence	0.0027174469042844872		5.9860337396212335
id-1378_AU26-66_AU4-33_AU43-66	1	1	1	3	4	train	id-1378_AU26-66_AU4-33_AU43-66	arousal	0.3994646949298196		5.9860337396212335
id-1361_AU11-100_AU12-33_AU13-33	1	1	1	3	5	test_extra	id-1361_AU11-100_AU12-33_AU13-33	valence	-0.19565617710848307		1.0354034497877365
id-1361_AU11-100_AU12-33_AU13-33	1	1	1	3	5	test_extra	id-1361_AU11-100_AU12-33_AU13-33	arousal	0.00815234071285346		1.0354034497877365
id-1309_AU11-66_AU24-66	1	1	1	3	6	test	id-1309_AU11-66_AU24-66	valence	-0.402182141834104		0.9852564611464912
id-1309_AU11-66_AU24-66	1	1	1	3	6	test	id-1309_AU11-66_AU24-66	arousal	-0.3179412878012849		0.9852564611464912
id-1362_AU11-66_AU13-100_AU15-100_AU9-100	1	1	1	3	7	test_extra	id-1362_AU11-66_AU13-100_AU15-100_AU9-100	valence	-0.4809881020583541		0.5851693455861096
id-1362_AU11-66_AU13-100_AU15-100_AU9-100	1	1	1	3	7	test_extra	id-1362_AU11-66_AU13-100_AU15-100_AU9-100	arousal	0.3913123542169661		0.5851693455861096
id-1273_AU13-33_AU4-100_AU9-100	1	1	1	3	8	test_extra	id-1273_AU13-33_AU4-100_AU9-100	valence	0.0027174469042844872		0.9937078175498756
id-1273_AU13-33_AU4-100_AU9-100	1	1	1	3	8	test_extra	id-1273_AU13-33_AU4-100_AU9-100	arousal	0.19293873020419855		0.9937078175498756
id-1274_AU14-100_AU25-100_AU27i-66_AU5-33	1	1	1	3	9	train	id-1274_AU14-100_AU25-100_AU27i-66_AU5-33	valence	-0.10869787617137948		2.260469790128809
id-1274_AU14-100_AU25-100_AU27i-66_AU5-33	1	1	1	3	9	train	id-1274_AU14-100_AU25-100_AU27i-66_AU5-33	arousal	0.5380544870483285		2.260469790128809
id-1363_AU7-66	1	1	1	3	10	test_extra	id-1363_AU7-66	valence	0.0		1.1104025215818183
id-1363_AU7-66	1	1	1	3	10	test_extra	id-1363_AU7-66	arousal	-0.8668655624667513		1.1104025215818183
id-1309_AU15-33	1	1	1	3	11	test	id-1309_AU15-33	valence	-0.0054348938085689745		1.7521142729156054
id-1309_AU15-33	1	1	1	3	11	test	id-1309_AU15-33	arousal	-0.9918681200638376		1.7521142729156054
id-1344_AU12-66_AU20-33	1	1	1	3	12	train	id-1344_AU12-66_AU20-33	valence	-0.1277200045013709		1.7520484683682298
id-1344_AU12-66_AU20-33	1	1	1	3	12	train	id-1344_AU12-66_AU20-33	arousal	-0.6875140667839752		1.7520484683682298
id-1273_AU12-100_AU16Open-33_AU20-100_AU22-66_AU5-66	1	1	1	3	13	test	id-1273_AU12-100_AU16Open-33_AU20-100_AU22-66_AU5-66	valence	0.2581574559070263		3.360630347185179
id-1273_AU12-100_AU16Open-33_AU20-100_AU22-66_AU5-66	1	1	1	3	13	test	id-1273_AU12-100_AU16Open-33_AU20-100_AU22-66_AU5-66	arousal	-0.0054348938085689745		3.360630347185179
id-1344_AU12-66_AU22-66_AU26-100_AU27i-33	1	1	1	3	14	train	id-1344_AU12-66_AU22-66_AU26-100_AU27i-33	valence	-0.00815234071285346		2.5943041033360714
id-1344_AU12-66_AU22-66_AU26-100_AU27i-33	1	1	1	3	14	train	id-1344_AU12-66_AU22-66_AU26-100_AU27i-33	arousal	0.33968086303556083		2.5943041033360714
id-1370_AU12-33_AU24-33_AU26-33	1	1	1	3	15	test_extra	id-1370_AU12-33_AU24-33_AU26-33	valence	0.5407719339526129		1.0854097736655604
id-1370_AU12-33_AU24-33_AU26-33	1	1	1	3	15	test_extra	id-1370_AU12-33_AU24-33_AU26-33	arousal	0.14945957973564675		1.0854097736655604
id-1366_AU9-33	1	1	1	3	16	test_extra	id-1366_AU9-33	valence	-0.0027174469042844872		4.269134256669531
id-1366_AU9-33	1	1	1	3	16	test_extra	id-1366_AU9-33	arousal	-0.7690374739125099		4.269134256669531
id-1274_AU10Open-100_AU12-66_AU24-33_AU7-66	1	1	1	3	17	train	id-1274_AU10Open-100_AU12-66_AU24-33_AU7-66	valence	-0.5733812968040267		3.1271340821967897
id-1274_AU10Open-100_AU12-66_AU24-33_AU7-66	1	1	1	3	17	train	id-1274_AU10Open-100_AU12-66_AU24-33_AU7-66	arousal	0.2663097966198797		3.1271340821967897
id-1341_AU27i-66_AU43-33	1	1	1	3	18	train	id-1341_AU27i-66_AU43-33	valence	-0.00815234071285346		1.693749262340134
id-1341_AU27i-66_AU43-33	1	1	1	3	18	train	id-1341_AU27i-66_AU43-33	arousal	0.20652596472562101		1.693749262340134
id-1266_AU13-66_AU17-100_AU2-100_AU9-33	1	1	1	3	19	test	id-1266_AU13-66_AU17-100_AU2-100_AU9-33	valence	-0.3288110754184229		0.7019250244729847
id-1266_AU13-66_AU17-100_AU2-100_AU9-33	1	1	1	3	19	test	id-1266_AU13-66_AU17-100_AU2-100_AU9-33	arousal	0.3260936285141384		0.7019250244729847
id-1366_AU15-66_AU24-33_AU4-100_AU9-100	1	1	1	3	20	train	id-1366_AU15-66_AU24-33_AU4-100_AU9-100	valence	-0.3559855444612677		2.485519830260273
id-1366_AU15-66_AU24-33_AU4-100_AU9-100	1	1	1	3	20	train	id-1366_AU15-66_AU24-33_AU4-100_AU9-100	arousal	0.5135974649097681		2.485519830260273
id-1260_AU24-66_AU26-66_AU5-33_AU6-66	1	1	1	3	21	test_extra	id-1260_AU24-66_AU26-66_AU5-33_AU6-66	valence	-0.11141532307566396		2.8940592077915426
id-1260_AU24-66_AU26-66_AU5-33_AU6-66	1	1	1	3	21	test_extra	id-1260_AU24-66_AU26-66_AU5-33_AU6-66	arousal	0.2717446904284487		2.8940592077915426
id-1318_AU2-66_AU22-100_AU5-33_AU7-66	1	1	1	3	22	test_extra	id-1318_AU2-66_AU22-100_AU5-33_AU7-66	valence	-0.21467830543847446		1.0269584323541494
id-1318_AU2-66_AU22-100_AU5-33_AU7-66	1	1	1	3	22	test_extra	id-1318_AU2-66_AU22-100_AU5-33_AU7-66	arousal	-0.7337106641568115		1.0269584323541494
id-1273_AU17-33_AU20-33_AU7-33_AU9-66	1	1	1	3	23	test_extra	id-1273_AU17-33_AU20-33_AU7-33_AU9-66	valence	-0.04619659737283628		1.4187282154498462
id-1273_AU17-33_AU20-33_AU7-33_AU9-66	1	1	1	3	23	test_extra	id-1273_AU17-33_AU20-33_AU7-33_AU9-66	arousal	-0.2500051151941728		1.4187282154498462
id-1291_AU14-33_AU7-33	1	1	1	3	24	test_extra	id-1291_AU14-33_AU7-33	valence	0.05978383189425871		1.1855630861855389
id-1291_AU14-33_AU7-33	1	1	1	3	24	test_extra	id-1291_AU14-33_AU7-33	arousal	-0.8614306686581823		1.1855630861855389
id-1269_AU10Open-66_AU20-66_AU26-66_AU43-66	1	1	1	3	25	test	id-1269_AU10Open-66_AU20-66_AU26-66_AU43-66	valence	-0.7092536420182511		2.368852293243436
id-1269_AU10Open-66_AU20-66_AU26-66_AU43-66	1	1	1	3	25	test	id-1269_AU10Open-66_AU20-66_AU26-66_AU43-66	arousal	0.4483787392069404		2.368852293243436
id-1266_AU1-33_AU10Open-100_AU11-66_AU12-100_AU14-33	1	1	1	3	26	test_extra	id-1266_AU1-33_AU10Open-100_AU11-66_AU12-100_AU14-33	valence	0.4728357613455008		0.9185647605781924
id-1266_AU1-33_AU10Open-100_AU11-66_AU12-100_AU14-33	1	1	1	3	26	test_extra	id-1266_AU1-33_AU10Open-100_AU11-66_AU12-100_AU14-33	arousal	0.5869685313254491		0.9185647605781924
id-1307_AU20-66_AU43-66	1	1	1	3	27	train	id-1307_AU20-66_AU43-66	valence	-0.19293873020419855		0.9520393523271196
id-1307_AU20-66_AU43-66	1	1	1	3	27	train	id-1307_AU20-66_AU43-66	arousal	-0.5679464029954577		0.9520393523271196
id-1264_AU14-66_AU15-66_AU20-66_AU6-33	1	1	1	3	28	test_extra	id-1264_AU14-66_AU15-66_AU20-66_AU6-33	valence	0.03804425665998282		1.343608401369238
id-1264_AU14-66_AU15-66_AU20-66_AU6-33	1	1	1	3	28	test_extra	id-1264_AU14-66_AU15-66_AU20-66_AU6-33	arousal	-0.2717446904284487		1.343608401369238
id-1289_AU17-33_AU26-66	1	1	1	3	29	test	id-1289_AU17-33_AU26-66	valence	0.42392171706838		1.635558120658061
id-1289_AU17-33_AU26-66	1	1	1	3	29	test	id-1289_AU17-33_AU26-66	arousal	-0.4837055489626387		1.635558120658061
id-1376_AU12-33_AU17-100_AU22-100_AU26-100	1	1	1	3	30	train	id-1376_AU12-33_AU17-100_AU22-100_AU26-100	valence	0.3994646949298196		0.8935756349310395
id-1376_AU12-33_AU17-100_AU22-100_AU26-100	1	1	1	3	30	train	id-1376_AU12-33_AU17-100_AU22-100_AU26-100	arousal	0.6549047039325613		0.8935756349310395
id-1323_AU2-33_AU22-66	1	1	1	3	31	train	id-1323_AU2-33_AU22-66	valence	0.23098298686418134		1.8016436647576484
id-1323_AU2-33_AU22-66	1	1	1	3	31	train	id-1323_AU2-33_AU22-66	arousal	-0.8777353500838894		1.8016436647576484
id-1311_AU27i-100_AU4-66	1	1	1	3	32	test_extra	id-1311_AU27i-100_AU4-66	valence	0.26359234971559525		4.044006941474436
id-1311_AU27i-100_AU4-66	1	1	1	3	32	test_extra	id-1311_AU27i-100_AU4-66	arousal	0.7690374739125099		4.044006941474436
id-1370_AU26-100_AU4-33_AU6-33	1	1	1	3	33	test_extra	id-1370_AU26-100_AU4-33_AU6-33	valence	0.2798970311413021		2.7521701162231693
id-1370_AU26-100_AU4-33_AU6-33	1	1	1	3	33	test_extra	id-1370_AU26-100_AU4-33_AU6-33	arousal	0.5924034251340181		2.7521701162231693
id-1290_AU24-100_AU9-33	1	1	1	3	34	test_extra	id-1290_AU24-100_AU9-33	valence	-0.6222953410811475		2.1020740204558024
id-1290_AU24-100_AU9-33	1	1	1	3	34	test_extra	id-1290_AU24-100_AU9-33	arousal	0.2771795842370177		2.1020740204558024
id-1380_AU2-33_AU25-100_AU7-33	1	1	1	3	35	test_extra	id-1380_AU2-33_AU25-100_AU7-33	valence	-0.12228511069280193		3.0272089726013287
id-1380_AU2-33_AU25-100_AU7-33	1	1	1	3	35	test_extra	id-1380_AU2-33_AU25-100_AU7-33	arousal	-0.6222953410811475		3.0272089726013287
id-1339_AU10Open-100_AU12-33_AU20-100_AU27i-33	1	1	1	3	36	test	id-1339_AU10Open-100_AU12-33_AU20-100_AU27i-33	valence	0.8451259872324756		2.002126271680936
id-1339_AU10Open-100_AU12-33_AU20-100_AU27i-33	1	1	1	3	36	test	id-1339_AU10Open-100_AU12-33_AU20-100_AU27i-33	arousal	0.8777353500838894		2.002126271680936
id-1323_AU12-66_AU16Open-33_AU7-66_AU9-100	1	1	1	4	1	test	id-1323_AU12-66_AU16Open-33_AU7-66_AU9-100	emotion	Boos	0.5677684321463571	2.7949346195609905
id-1345_AU17-66_AU25-66_AU6-100	1	1	1	4	2	test	id-1345_AU17-66_AU25-66_AU6-100	emotion	Verdrietig	0.3329232986922736	1.728221789093368
id-1345_AU17-100_AU20-33	1	1	1	4	3	test_extra	id-1345_AU17-100_AU20-33	emotion	Verdrietig	0.35258478837827484	2.6033329097290334
id-1296_AU1-66_AU17-100_AU27i-33_AU4-66_AU5-100	1	1	1	4	4	test	id-1296_AU1-66_AU17-100_AU27i-33_AU4-66_AU5-100	emotion	Bang	0.4855716977482589	1.1862624858849813
id-1373_AU5-33	1	1	1	4	5	train	id-1373_AU5-33	emotion	Geen van allen	0.0	0.8362511210161756
id-1285_AU12-66_AU20-100	1	1	1	4	6	train	id-1285_AU12-66_AU20-100	emotion	Blij	0.2711752751844794	2.1531099741887374
id-1347_AU11-33_AU4-100	1	1	1	4	7	test_extra	id-1347_AU11-33_AU4-100	emotion	Boos	0.13116111992309742	0.911301508282122
id-1376_AU13-66_AU22-100_AU27i-33_AU6-33	1	1	1	4	8	train	id-1376_AU13-66_AU22-100_AU27i-33_AU6-33	emotion	Blij	0.6887065529047111	1.3280631337265731
id-1290_AU13-100_AU20-33_AU25-33	1	1	1	4	9	train	id-1290_AU13-100_AU20-33_AU25-33	emotion	Walging	0.1516659971221247	1.1528808656985348
id-1315_AU12-66_AU17-33_AU2-100_AU4-100	1	1	1	4	10	test	id-1315_AU12-66_AU17-33_AU2-100_AU4-100	emotion	Walging	0.188243181090156	7.470649210149531
id-1356_AU6-33	1	1	1	4	11	test	id-1356_AU6-33	emotion	Geen van allen	0.0	0.6778532383532365
id-1260_AU14-100_AU17-33_AU2-66_AU27i-100	1	1	1	4	12	train	id-1260_AU14-100_AU17-33_AU2-66_AU27i-100	emotion	Verrassing	0.6121379237776963	1.4615132449762314
id-1309_AU12-100_AU15-100_AU27i-100	1	1	1	4	13	test_extra	id-1309_AU12-100_AU15-100_AU27i-100	emotion	Verrassing	0.6926105936135375	1.0697271616718351
id-1294_AU11-100_AU2-100_AU24-33	1	1	1	4	14	test_extra	id-1294_AU11-100_AU2-100_AU24-33	emotion	Bang	0.18651141851035336	3.645143850852037
id-1306_AU1-66_AU27i-33	1	1	1	4	15	test_extra	id-1306_AU1-66_AU27i-33	emotion	Verrassing	0.5652184929845827	0.9555502361863546
id-1310_AU13-66	1	1	1	4	16	test_extra	id-1310_AU13-66	emotion	Verdrietig	0.08429249339206782	1.4115540105904074
id-1370_AU20-33_AU26-100	1	1	1	4	17	train	id-1370_AU20-33_AU26-100	emotion	Bang	0.0972356104075397	5.9877778619620585
id-1307_AU10Open-33_AU12-100_AU17-33	1	1	1	4	18	test_extra	id-1307_AU10Open-33_AU12-100_AU17-33	emotion	Blij	0.6524882096080912	1.4366116574865373
id-1354_AU1-66_AU10Open-100	1	1	1	4	19	test	id-1354_AU1-66_AU10Open-100	emotion	Walging	0.28846422769446395	1.2866201547249148
id-1269_AU14-33_AU25-66	1	1	1	4	20	test_extra	id-1269_AU14-33_AU25-66	emotion	Blij	0.17100215770135696	0.8278791526672649
id-1297_AU20-33_AU22-33_AU26-66	1	1	1	4	21	train	id-1297_AU20-33_AU22-33_AU26-66	emotion	Verdrietig	0.13598184463741905	1.3613077114177938
id-1356_AU22-100	1	1	1	4	22	train	id-1356_AU22-100	emotion	Geen van allen	0.0	0.944569932574268
id-1295_AU15-66_AU17-33_AU20-33_AU25-66	1	1	1	4	23	test_extra	id-1295_AU15-66_AU17-33_AU20-33_AU25-66	emotion	Verdrietig	0.15655406803634928	3.886690909705976
id-1378_AU11-66_AU27i-33_AU4-100	1	1	1	4	24	test_extra	id-1378_AU11-66_AU27i-33_AU4-100	emotion	Verrassing	0.6708412062723276	2.0366301914282303
id-1291_AU17-33_AU24-66	1	1	1	4	25	test_extra	id-1291_AU17-33_AU24-66	emotion	Verdrietig	0.10769268768308904	1.0863784286657392
id-1347_AU13-100_AU14-66_AU17-100_AU27i-66_AU7-100	1	1	1	4	26	test	id-1347_AU13-100_AU14-66_AU17-100_AU27i-66_AU7-100	emotion	Verrassing	0.7606607345669797	0.9947821220521292
id-1294_AU13-66_AU15-33_AU24-100_AU4-66	1	1	1	4	27	test_extra	id-1294_AU13-66_AU15-33_AU24-100_AU4-66	emotion	Walging	0.5958283603959287	7.120930947184206
id-1362_AU12-66_AU17-100_AU22-100	1	1	1	4	28	test_extra	id-1362_AU12-66_AU17-100_AU22-100	emotion	Blij	0.7631935630664812	1.236371742562369
id-1307_AU13-66_AU14-66_AU43-33	1	1	1	4	29	test_extra	id-1307_AU13-66_AU14-66_AU43-33	emotion	Blij	0.2068032725815477	0.877937395727713
id-1342_AU17-100_AU2-100_AU20-33_AU26-33	1	1	1	4	30	test_extra	id-1342_AU17-100_AU2-100_AU20-33_AU26-33	emotion	Verrassing	0.4516175335552466	1.4949446713562793
id-1264_AU14-33_AU20-100_AU22-66_AU6-100	1	1	1	4	31	train	id-1264_AU14-33_AU20-100_AU22-66_AU6-100	emotion	Blij	0.3279493138164189	0.8946306206671579
id-1339_AU20-100_AU43-33_AU9-100	1	1	1	4	32	test_extra	id-1339_AU20-100_AU43-33_AU9-100	emotion	Boos	0.4817309450896138	1.102987435859177
id-1269_AU10Open-33	1	1	1	4	33	train	id-1269_AU10Open-33	emotion	Walging	0.037937917445800697	1.477983398538527
id-1270_AU12-33_AU15-33_AU17-100_AU24-66	1	1	1	4	34	test_extra	id-1270_AU12-33_AU15-33_AU17-100_AU24-66	emotion	Bang	0.1807729687015976	1.8863362292358945
id-1266_AU20-100_AU22-100_AU24-100_AU25-66_AU6-66	1	1	1	4	35	test_extra	id-1266_AU20-100_AU22-100_AU24-100_AU25-66_AU6-66	emotion	Verdrietig	0.29845797511545497	1.263955016253021
id-1323_AU12-33_AU20-100_AU25-33_AU4-33	1	1	1	4	36	test_extra	id-1323_AU12-33_AU20-100_AU25-33_AU4-33	emotion	Geen van allen		
id-1358_AU12-33_AU25-33_AU6-33_AU9-33	1	1	2	5	1	test_extra	id-1358_AU12-33_AU25-33_AU6-33_AU9-33	valence	-0.23913532757703485		2.63546454538573
id-1358_AU12-33_AU25-33_AU6-33_AU9-33	1	1	2	5	1	test_extra	id-1358_AU12-33_AU25-33_AU6-33_AU9-33	arousal	-0.19022128329991408		2.63546454538573
id-1260_AU22-100_AU25-100_AU26-100	1	1	2	5	2	test	id-1260_AU22-100_AU25-100_AU26-100	valence	0.21467830543847446		1.4687777046956398
id-1260_AU22-100_AU25-100_AU26-100	1	1	2	5	2	test	id-1260_AU22-100_AU25-100_AU26-100	arousal	0.8288213058067685		1.4687777046956398
id-1344_AU10Open-33_AU16Open-100	1	1	2	5	3	test_extra	id-1344_AU10Open-33_AU16Open-100	valence	-0.6304476817940009		1.1605181172299126
id-1344_AU10Open-33_AU16Open-100	1	1	2	5	3	test_extra	id-1344_AU10Open-33_AU16Open-100	arousal	0.50272767729263		1.1605181172299126
id-1373_AU1-66_AU24-33_AU26-66_AU7-33	1	1	2	5	4	test_extra	id-1373_AU1-66_AU24-33_AU26-66_AU7-33	valence	-0.3451157568441299		2.1604206178326417
id-1373_AU1-66_AU24-33_AU26-66_AU7-33	1	1	2	5	4	test_extra	id-1373_AU1-66_AU24-33_AU26-66_AU7-33	arousal	-0.0027174469042844872		2.1604206178326417
id-1342_AU10Open-66_AU25-66_AU26-33_AU5-100	1	1	2	5	5	test_extra	id-1342_AU10Open-66_AU25-66_AU26-33_AU5-100	valence	-0.7934944960510701		0.9938001853997775
id-1342_AU10Open-66_AU25-66_AU26-33_AU5-100	1	1	2	5	5	test_extra	id-1342_AU10Open-66_AU25-66_AU26-33_AU5-100	arousal	0.7771898146253633		0.9938001853997775
id-1266_AU15-33	1	1	2	5	6	train	id-1266_AU15-33	valence	0.0		1.3604582894258783
id-1266_AU15-33	1	1	2	5	6	train	id-1266_AU15-33	arousal	-0.8777353500838894		1.3604582894258783
id-1377_AU10Open-66_AU16Open-66_AU26-100	1	1	2	5	7	train	id-1377_AU10Open-66_AU16Open-66_AU26-100	valence	-0.5271846994311905		2.5355804881664885
id-1377_AU10Open-66_AU16Open-66_AU26-100	1	1	2	5	7	train	id-1377_AU10Open-66_AU16Open-66_AU26-100	arousal	0.7391455579653804		2.5355804881664885
id-1260_AU17-33_AU24-100_AU6-33	1	1	2	5	8	test_extra	id-1260_AU17-33_AU24-100_AU6-33	valence	-0.0054348938085689745		1.818859401944792
id-1260_AU17-33_AU24-100_AU6-33	1	1	2	5	8	test_extra	id-1260_AU17-33_AU24-100_AU6-33	arousal	-0.4945753365797766		1.818859401944792
id-1290_AU11-66_AU16Open-100_AU43-33_AU6-33	1	1	2	5	9	test_extra	id-1290_AU11-66_AU16Open-100_AU43-33_AU6-33	valence	-0.14945957973564675		3.8439979461736575
id-1290_AU11-66_AU16Open-100_AU43-33_AU6-33	1	1	2	5	9	test_extra	id-1290_AU11-66_AU16Open-100_AU43-33_AU6-33	arousal	-0.4809881020583541		3.8439979461736575
id-1290_AU10Open-33_AU14-66_AU24-66	1	1	2	5	10	test	id-1290_AU10Open-33_AU14-66_AU24-66	valence	-0.38044256659982817		1.7187558956193243
id-1290_AU10Open-33_AU14-66_AU24-66	1	1	2	5	10	test	id-1290_AU10Open-33_AU14-66_AU24-66	arousal	0.6739268322625528		1.7187558956193243
id-1302_AU14-100_AU17-33_AU26-66_AU9-33	1	1	2	5	11	test_extra	id-1302_AU14-100_AU17-33_AU26-66_AU9-33	valence	-0.8179515181896305		1.335275372406613
id-1302_AU14-100_AU17-33_AU26-66_AU9-33	1	1	2	5	11	test_extra	id-1302_AU14-100_AU17-33_AU26-66_AU9-33	arousal	0.7962119429553548		1.335275372406613
id-1285_AU16Open-33_AU5-33	1	1	2	5	12	test	id-1285_AU16Open-33_AU5-33	valence	0.09239319474567256		0.7352360104214313
id-1285_AU16Open-33_AU5-33	1	1	2	5	12	test	id-1285_AU16Open-33_AU5-33	arousal	-0.8206689650939151		0.7352360104214313
id-1342_AU1-100_AU27i-33	1	1	2	5	13	test_extra	id-1342_AU1-100_AU27i-33	valence	-0.418486823259811		1.6938872104028633
id-1342_AU1-100_AU27i-33	1	1	2	5	13	test_extra	id-1342_AU1-100_AU27i-33	arousal	0.6603395977411303		1.6938872104028633
id-1355_AU12-100_AU26-33_AU5-66	1	1	2	5	14	test_extra	id-1355_AU12-100_AU26-33_AU5-66	valence	0.418486823259811		1.6104609306630664
id-1355_AU12-100_AU26-33_AU5-66	1	1	2	5	14	test_extra	id-1355_AU12-100_AU26-33_AU5-66	arousal	0.5353370401440439		1.6104609306630664
id-1291_AU20-33_AU24-100_AU25-33_AU27i-100	1	1	2	5	15	test	id-1291_AU20-33_AU24-100_AU25-33_AU27i-100	valence	0.09511064164995704		0.7854095623670219
id-1291_AU20-33_AU24-100_AU25-33_AU27i-100	1	1	2	5	15	test	id-1291_AU20-33_AU24-100_AU25-33_AU27i-100	arousal	0.5978383189425871		0.7854095623670219
id-1341_AU14-33_AU2-33	1	1	2	5	16	test_extra	id-1341_AU14-33_AU2-33	valence	0.7146885358268201		1.1186338251673078
id-1341_AU14-33_AU2-33	1	1	2	5	16	test_extra	id-1341_AU14-33_AU2-33	arousal	-0.8206689650939151		1.1186338251673078
id-1297_AU10Open-66_AU5-66_AU9-100	1	1	2	5	17	train	id-1297_AU10Open-66_AU5-66_AU9-100	valence	-0.7119710889225355		0.9603255936517598
id-1297_AU10Open-66_AU5-66_AU9-100	1	1	2	5	17	train	id-1297_AU10Open-66_AU5-66_AU9-100	arousal	0.4347915046855179		0.9603255936517598
id-1367_AU25-66_AU4-66_AU6-33	1	1	2	5	18	test	id-1367_AU25-66_AU4-66_AU6-33	valence	-0.2608749028113107		0.7436647276463191
id-1367_AU25-66_AU4-66_AU6-33	1	1	2	5	18	test	id-1367_AU25-66_AU4-66_AU6-33	arousal	-0.2744621373327332		0.7436647276463191
id-1289_AU11-100_AU7-100	1	1	2	5	19	test_extra	id-1289_AU11-100_AU7-100	valence	-0.32337618160985393		3.2939564561056613
id-1289_AU11-100_AU7-100	1	1	2	5	19	test_extra	id-1289_AU11-100_AU7-100	arousal	-0.6793617260711217		3.2939564561056613
id-1291_AU15-66_AU20-66_AU7-100	1	1	2	5	20	test_extra	id-1291_AU15-66_AU20-66_AU7-100	valence	-0.010869787617137949		2.443866155967044
id-1291_AU15-66_AU20-66_AU7-100	1	1	2	5	20	test_extra	id-1291_AU15-66_AU20-66_AU7-100	arousal	-0.5054451241969146		2.443866155967044
id-1318_AU22-100_AU26-100_AU27i-33_AU4-33_AU6-33	1	1	2	5	21	test	id-1318_AU22-100_AU26-100_AU27i-33_AU4-33_AU6-33	valence	-0.5462068277611818		1.5853746074744777
id-1318_AU22-100_AU26-100_AU27i-33_AU4-33_AU6-33	1	1	2	5	21	test	id-1318_AU22-100_AU26-100_AU27i-33_AU4-33_AU6-33	arousal	0.6087081065597252		1.5853746074744777
id-1361_AU12-33_AU15-33_AU16Open-100_AU6-66	1	1	2	5	22	test	id-1361_AU12-33_AU15-33_AU16Open-100_AU6-66	valence	0.5842510844211647		1.5939062574989291
id-1361_AU12-33_AU15-33_AU16Open-100_AU6-66	1	1	2	5	22	test	id-1361_AU12-33_AU15-33_AU16Open-100_AU6-66	arousal	0.26902724352416424		1.5939062574989291
id-1306_AU22-66_AU25-33_AU43-33	1	1	2	5	23	test_extra	id-1306_AU22-66_AU25-33_AU43-33	valence	-0.0027174469042844872		1.5772097121471234
id-1306_AU22-66_AU25-33_AU43-33	1	1	2	5	23	test_extra	id-1306_AU22-66_AU25-33_AU43-33	arousal	-0.7717549208167943		1.5772097121471234
id-1354_AU16Open-33_AU20-33_AU25-100_AU7-66	1	1	2	5	24	train	id-1354_AU16Open-33_AU20-33_AU25-100_AU7-66	valence	-0.2798970311413021		4.444125450028878
id-1354_AU16Open-33_AU20-33_AU25-100_AU7-66	1	1	2	5	24	train	id-1354_AU16Open-33_AU20-33_AU25-100_AU7-66	arousal	0.3478332037484143		4.444125450028878
id-1285_AU24-66_AU9-66	1	1	2	5	25	test_extra	id-1285_AU24-66_AU9-66	valence	-0.2472876682898883		0.9436984751146156
id-1285_AU24-66_AU9-66	1	1	2	5	25	test_extra	id-1285_AU24-66_AU9-66	arousal	0.21196085853419		0.9436984751146156
id-1289_AU22-33_AU4-33_AU6-66	1	1	2	5	26	test_extra	id-1289_AU22-33_AU4-33_AU6-66	valence	-0.1277200045013709		0.7520303570254327
id-1289_AU22-33_AU4-33_AU6-66	1	1	2	5	26	test_extra	id-1289_AU22-33_AU4-33_AU6-66	arousal	-0.7717549208167943		0.7520303570254327
id-1291_AU15-100_AU22-66	1	1	2	5	27	train	id-1291_AU15-100_AU22-66	valence	0.0		2.7523041401627784
id-1291_AU15-100_AU22-66	1	1	2	5	27	train	id-1291_AU15-100_AU22-66	arousal	-0.6494698101239924		2.7523041401627784
id-1269_AU17-33	1	1	2	5	28	test_extra	id-1269_AU17-33	valence	0.0		1.0361789171292912
id-1269_AU17-33	1	1	2	5	28	test_extra	id-1269_AU17-33	arousal	-0.6956664074968286		1.0361789171292912
id-1356_AU13-100_AU15-33_AU16Open-100	1	1	2	5	29	test_extra	id-1356_AU13-100_AU15-33_AU16Open-100	valence	0.5135974649097681		3.1522324796151224
id-1356_AU13-100_AU15-33_AU16Open-100	1	1	2	5	29	test_extra	id-1356_AU13-100_AU15-33_AU16Open-100	arousal	0.4782706551540697		3.1522324796151224
id-1318_AU1-100_AU13-66_AU2-100	1	1	2	5	30	train	id-1318_AU1-100_AU13-66_AU2-100	valence	0.17663404877849165		2.210586623384188
id-1318_AU1-100_AU13-66_AU2-100	1	1	2	5	30	train	id-1318_AU1-100_AU13-66_AU2-100	arousal	-0.4972927834840611		2.210586623384188
id-1294_AU10Open-33_AU7-100	1	1	2	5	31	test_extra	id-1294_AU10Open-33_AU7-100	valence	0.1440246859270778		7.552929947438315
id-1294_AU10Open-33_AU7-100	1	1	2	5	31	test_extra	id-1294_AU10Open-33_AU7-100	arousal	0.3532680975569833		7.552929947438315
id-1344_AU10Open-66	1	1	2	5	32	test_extra	id-1344_AU10Open-66	valence	-0.15761192044850025		1.2436337874351011
id-1344_AU10Open-66	1	1	2	5	32	test_extra	id-1344_AU10Open-66	arousal	-0.4320740577812335		1.2436337874351011
id-1318_AU1-33_AU16Open-33_AU20-100_AU43-66	1	1	2	5	33	test_extra	id-1318_AU1-33_AU16Open-33_AU20-100_AU43-66	valence	-0.0027174469042844872		4.110708905136562
id-1318_AU1-33_AU16Open-33_AU20-100_AU43-66	1	1	2	5	33	test_extra	id-1318_AU1-33_AU16Open-33_AU20-100_AU43-66	arousal	0.00815234071285346		4.110708905136562
id-1367_AU16Open-66_AU2-100_AU7-100	1	1	2	5	34	train	id-1367_AU16Open-66_AU2-100_AU7-100	valence	-0.20380851782133647		2.86898435512012
id-1367_AU16Open-66_AU2-100_AU7-100	1	1	2	5	34	train	id-1367_AU16Open-66_AU2-100_AU7-100	arousal	-0.2500051151941728		2.86898435512012
id-1342_AU12-100_AU20-100_AU6-66	1	1	2	5	35	train	id-1342_AU12-100_AU20-100_AU6-66	valence	-0.3043540532798626		1.0687192654286264
id-1342_AU12-100_AU20-100_AU6-66	1	1	2	5	35	train	id-1342_AU12-100_AU20-100_AU6-66	arousal	0.0		1.0687192654286264
id-1285_AU26-100_AU4-66_AU7-100_AU9-33	1	1	2	5	36	test_extra	id-1285_AU26-100_AU4-66_AU7-100_AU9-33	valence	-0.2663097966198797		2.2523109319163264
id-1285_AU26-100_AU4-66_AU7-100_AU9-33	1	1	2	5	36	test_extra	id-1285_AU26-100_AU4-66_AU7-100_AU9-33	arousal	0.2554400090027418		2.2523109319163264
id-1370_AU26-100_AU4-33_AU6-33	1	1	2	6	1	test_extra	id-1370_AU26-100_AU4-33_AU6-33	emotion	Blij	0.7414338369808796	2.219844840123187
id-1309_AU11-66_AU24-66	1	1	2	6	2	test	id-1309_AU11-66_AU24-66	emotion	Bang	0.09445973037330972	4.520235049010807
id-1311_AU27i-100_AU4-66	1	1	2	6	3	test_extra	id-1311_AU27i-100_AU4-66	emotion	Verrassing	0.5534017852671004	1.0281166527456662
id-1341_AU27i-66_AU43-33	1	1	2	6	4	train	id-1341_AU27i-66_AU43-33	emotion	Blij	0.3290150243414525	1.528090844082726
id-1290_AU24-100_AU9-33	1	1	2	6	5	test_extra	id-1290_AU24-100_AU9-33	emotion	Walging	0.2657701822296176	1.0705780929420143
id-1323_AU2-33_AU22-66	1	1	2	6	6	train	id-1323_AU2-33_AU22-66	emotion	Walging	0.006081304559216072	0.9529452213373588
id-1344_AU12-66_AU22-66_AU26-100_AU27i-33	1	1	2	6	7	train	id-1344_AU12-66_AU22-66_AU26-100_AU27i-33	emotion	Verrassing	0.5017370471325718	1.002976901094371
id-1269_AU10Open-66_AU20-66_AU26-66_AU43-66	1	1	2	6	8	test	id-1269_AU10Open-66_AU20-66_AU26-66_AU43-66	emotion	Verrassing	0.8194563583766553	1.1945894777318244
id-1366_AU9-33	1	1	2	6	9	test_extra	id-1366_AU9-33	emotion	Walging	0.01357016021882329	2.0698485076709403
id-1273_AU17-33_AU20-33_AU7-33_AU9-66	1	1	2	6	10	test_extra	id-1273_AU17-33_AU20-33_AU7-33_AU9-66	emotion	Boos	0.057892044676192175	1.8865022498821409
id-1274_AU10Open-100_AU12-66_AU24-33_AU7-66	1	1	2	6	11	train	id-1274_AU10Open-100_AU12-66_AU24-33_AU7-66	emotion	Boos	0.63498183331633	0.7279655135871508
id-1363_AU7-66	1	1	2	6	12	test_extra	id-1363_AU7-66	emotion	Geen van allen	0.0	1.4447403301273882
id-1274_AU14-100_AU25-100_AU27i-66_AU5-33	1	1	2	6	13	train	id-1274_AU14-100_AU25-100_AU27i-66_AU5-33	emotion	Verrassing	0.5984602024992657	1.0447416582919686
id-1361_AU11-100_AU12-33_AU13-33	1	1	2	6	14	test_extra	id-1361_AU11-100_AU12-33_AU13-33	emotion	Bang	0.3139950775156632	4.945830482054589
id-1339_AU10Open-100_AU12-33_AU20-100_AU27i-33	1	1	2	6	15	test	id-1339_AU10Open-100_AU12-33_AU20-100_AU27i-33	emotion	Blij	0.670751191991053	1.3114942733445791
id-1289_AU17-33_AU26-66	1	1	2	6	16	test	id-1289_AU17-33_AU26-66	emotion	Verrassing	0.2031929536255849	2.2448098173144904
id-1362_AU11-66_AU13-100_AU15-100_AU9-100	1	1	2	6	17	test_extra	id-1362_AU11-66_AU13-100_AU15-100_AU9-100	emotion	Walging	0.3615281311980164	0.9780744080380828
id-1380_AU2-33_AU25-100_AU7-33	1	1	2	6	18	test_extra	id-1380_AU2-33_AU25-100_AU7-33	emotion	Bang	0.08584964893325242	2.1780372194134543
id-1295_AU12-66_AU17-66_AU25-66_AU9-100	1	1	2	6	19	train	id-1295_AU12-66_AU17-66_AU25-66_AU9-100	emotion	Boos	0.4278234537637646	1.4531301079641707
id-1363_AU16Open-66_AU26-66_AU43-66	1	1	2	6	20	train	id-1363_AU16Open-66_AU26-66_AU43-66	emotion	Verrassing	0.5244488479447295	1.228099386598842
id-1266_AU1-33_AU10Open-100_AU11-66_AU12-100_AU14-33	1	1	2	6	21	test_extra	id-1266_AU1-33_AU10Open-100_AU11-66_AU12-100_AU14-33	emotion	Bang	0.3497509337696691	1.678159018196311
id-1370_AU12-33_AU24-33_AU26-33	1	1	2	6	22	test_extra	id-1370_AU12-33_AU24-33_AU26-33	emotion	Blij	0.3663396449417377	0.7198863452849764
id-1264_AU14-66_AU15-66_AU20-66_AU6-33	1	1	2	6	23	test_extra	id-1264_AU14-66_AU15-66_AU20-66_AU6-33	emotion	Verdrietig	0.26450157547980524	1.0696510940306323
id-1376_AU12-33_AU17-100_AU22-100_AU26-100	1	1	2	6	24	train	id-1376_AU12-33_AU17-100_AU22-100_AU26-100	emotion	Blij	0.7587402720965395	1.1447687951213084
id-1291_AU14-33_AU7-33	1	1	2	6	25	test_extra	id-1291_AU14-33_AU7-33	emotion	Blij	0.058629366940195785	1.1368873423143668
id-1266_AU13-66_AU17-100_AU2-100_AU9-33	1	1	2	6	26	test	id-1266_AU13-66_AU17-100_AU2-100_AU9-33	emotion	Bang	0.16659778857285445	3.828350953154768
id-1260_AU24-66_AU26-66_AU5-33_AU6-66	1	1	2	6	27	test_extra	id-1260_AU24-66_AU26-66_AU5-33_AU6-66	emotion	Bang	0.3240321481981637	0.8778857784000138
id-1380_AU13-66_AU20-66_AU22-100_AU5-100	1	1	2	6	28	test_extra	id-1380_AU13-66_AU20-66_AU22-100_AU5-100	emotion	Verdrietig	0.13824828674815304	1.1279889375919083
id-1366_AU15-66_AU24-33_AU4-100_AU9-100	1	1	2	6	29	train	id-1366_AU15-66_AU24-33_AU4-100_AU9-100	emotion	Walging	0.14874778038294076	0.8864189377036382
id-1309_AU15-33	1	1	2	6	30	test	id-1309_AU15-33	emotion	Geen van allen	0.0	3.31159901727915
id-1273_AU13-33_AU4-100_AU9-100	1	1	2	6	31	test_extra	id-1273_AU13-33_AU4-100_AU9-100	emotion	Walging	0.15038465687719058	3.7869085778638687
id-1307_AU20-66_AU43-66	1	1	2	6	32	train	id-1307_AU20-66_AU43-66	emotion	Verdrietig	0.12260105696382324	5.270390278314154
id-1273_AU12-100_AU16Open-33_AU20-100_AU22-66_AU5-66	1	1	2	6	33	test	id-1273_AU12-100_AU16Open-33_AU20-100_AU22-66_AU5-66	emotion	Blij	0.4338038740527688	1.3447074580399203
id-1378_AU26-66_AU4-33_AU43-66	1	1	2	6	34	train	id-1378_AU26-66_AU4-33_AU43-66	emotion	Verrassing	0.2888946637986713	0.9614165002185472
id-1344_AU12-66_AU20-33	1	1	2	6	35	train	id-1344_AU12-66_AU20-33	emotion	Verdrietig	0.11698708041732007	2.1448493905991204
id-1318_AU2-66_AU22-100_AU5-33_AU7-66	1	1	2	6	36	test_extra	id-1318_AU2-66_AU22-100_AU5-33_AU7-66	emotion	Verrassing	0.041372387016681	0.9446450946488768
id-1323_AU22-66_AU7-100	1	1	2	7	1	train	id-1323_AU22-66_AU7-100	valence	0.07608851331996565		3.06084203860064
id-1323_AU22-66_AU7-100	1	1	2	7	1	train	id-1323_AU22-66_AU7-100	arousal	-0.7962119429553548		3.06084203860064
id-1355_AU11-100_AU15-100_AU2-66_AU25-33	1	1	2	7	2	test_extra	id-1355_AU11-100_AU15-100_AU2-66_AU25-33	valence	0.05978383189425871		1.4771212986079263
id-1355_AU11-100_AU15-100_AU2-66_AU25-33	1	1	2	7	2	test_extra	id-1355_AU11-100_AU15-100_AU2-66_AU25-33	arousal	-0.4375089515898024		1.4771212986079263
id-1335_AU1-33_AU14-66_AU27i-66_AU7-100	1	1	2	7	3	test_extra	id-1335_AU1-33_AU14-66_AU27i-66_AU7-100	valence	0.7038187482096819		1.268759050011795
id-1335_AU1-33_AU14-66_AU27i-66_AU7-100	1	1	2	7	3	test_extra	id-1335_AU1-33_AU14-66_AU27i-66_AU7-100	arousal	0.6739268322625528		1.268759050011795
id-1294_AU10Open-66_AU27i-66_AU43-33_AU7-66	1	1	2	7	4	test_extra	id-1294_AU10Open-66_AU27i-66_AU43-33_AU7-66	valence	0.6087081065597252		1.2770244632929462
id-1294_AU10Open-66_AU27i-66_AU43-33_AU7-66	1	1	2	7	4	test_extra	id-1294_AU10Open-66_AU27i-66_AU43-33_AU7-66	arousal	0.6576221508368458		1.2770244632929462
id-1362_AU1-100_AU26-66	1	1	2	7	5	test_extra	id-1362_AU1-100_AU26-66	valence	0.29891915947129355		2.3354118111919893
id-1362_AU1-100_AU26-66	1	1	2	7	5	test_extra	id-1362_AU1-100_AU26-66	arousal	0.7608851331996563		2.3354118111919893
id-1315_AU15-33_AU20-100	1	1	2	7	6	test_extra	id-1315_AU15-33_AU20-100	valence	-0.1630468142570692		0.7852996868850823
id-1315_AU15-33_AU20-100	1	1	2	7	6	test_extra	id-1315_AU15-33_AU20-100	arousal	-0.7472978986782339		0.7852996868850823
id-1363_AU2-100_AU25-100_AU26-100_AU27i-66	1	1	2	7	7	train	id-1363_AU2-100_AU25-100_AU26-100_AU27i-66	valence	0.7663200270082253		1.085307444576756
id-1363_AU2-100_AU25-100_AU26-100_AU27i-66	1	1	2	7	7	train	id-1363_AU2-100_AU25-100_AU26-100_AU27i-66	arousal	0.7744723677210787		1.085307444576756
id-1339_AU11-100_AU15-66_AU43-33	1	1	2	7	8	test_extra	id-1339_AU11-100_AU15-66_AU43-33	valence	0.7174059827311046		3.5357217566433974
id-1339_AU11-100_AU15-66_AU43-33	1	1	2	7	8	test_extra	id-1339_AU11-100_AU15-66_AU43-33	arousal	-0.33968086303556083		3.5357217566433974
id-1354_AU14-66_AU7-100	1	1	2	7	9	train	id-1354_AU14-66_AU7-100	valence	0.4619659737283627		1.0519212965555198
id-1354_AU14-66_AU7-100	1	1	2	7	9	train	id-1354_AU14-66_AU7-100	arousal	-0.2880493718541556		1.0519212965555198
id-1376_AU11-100_AU17-33_AU24-66_AU43-66	1	1	2	7	10	test_extra	id-1376_AU11-100_AU17-33_AU24-66_AU43-66	valence	0.11141532307566396		1.6437827834170091
id-1376_AU11-100_AU17-33_AU24-66_AU43-66	1	1	2	7	10	test_extra	id-1376_AU11-100_AU17-33_AU24-66_AU43-66	arousal	-0.5299021463354749		1.6437827834170091
id-1378_AU11-100_AU12-66_AU15-100_AU43-33	1	1	2	7	11	train	id-1378_AU11-100_AU12-66_AU15-100_AU43-33	valence	0.1032629823628105		1.2270326284906332
id-1378_AU11-100_AU12-66_AU15-100_AU43-33	1	1	2	7	11	train	id-1378_AU11-100_AU12-66_AU15-100_AU43-33	arousal	-0.0625012787985432		1.2270326284906332
id-1366_AU15-66_AU22-66_AU24-33_AU5-100	1	1	2	7	12	train	id-1366_AU15-66_AU22-66_AU24-33_AU5-100	valence	-0.00815234071285346		0.6852438737623743
id-1366_AU15-66_AU22-66_AU24-33_AU5-100	1	1	2	7	12	train	id-1366_AU15-66_AU22-66_AU24-33_AU5-100	arousal	-0.6087081065597252		0.6852438737623743
id-1367_AU1-100_AU22-33_AU26-100	1	1	2	7	13	test_extra	id-1367_AU1-100_AU22-33_AU26-100	valence	0.2744621373327332		2.6106112548113742
id-1367_AU1-100_AU22-33_AU26-100	1	1	2	7	13	test_extra	id-1367_AU1-100_AU22-33_AU26-100	arousal	0.7146885358268201		2.6106112548113742
id-1335_AU12-100_AU20-100_AU5-33	1	1	2	7	14	train	id-1335_AU12-100_AU20-100_AU5-33	valence	0.2744621373327332		5.920198403726318
id-1335_AU12-100_AU20-100_AU5-33	1	1	2	7	14	train	id-1335_AU12-100_AU20-100_AU5-33	arousal	0.4782706551540697		5.920198403726318
id-1307_AU10Open-66_AU17-33_AU22-33_AU9-100	1	1	2	7	15	test	id-1307_AU10Open-66_AU17-33_AU22-33_AU9-100	valence	-0.4945753365797766		3.119055819461209
id-1307_AU10Open-66_AU17-33_AU22-33_AU9-100	1	1	2	7	15	test	id-1307_AU10Open-66_AU17-33_AU22-33_AU9-100	arousal	0.6494698101239924		3.119055819461209
id-1341_AU12-33_AU2-66_AU20-33_AU24-66_AU5-33	1	1	2	7	16	train	id-1341_AU12-33_AU2-66_AU20-33_AU24-66_AU5-33	valence	-0.1440246859270778		2.1855027150413657
id-1341_AU12-33_AU2-66_AU20-33_AU24-66_AU5-33	1	1	2	7	16	train	id-1341_AU12-33_AU2-66_AU20-33_AU24-66_AU5-33	arousal	-0.33968086303556083		2.1855027150413657
id-1315_AU5-33_AU6-66	1	1	2	7	17	test_extra	id-1315_AU5-33_AU6-66	valence	0.0027174469042844872		1.4269531800655386
id-1315_AU5-33_AU6-66	1	1	2	7	17	test_extra	id-1315_AU5-33_AU6-66	arousal	-0.7500153455825184		1.4269531800655386
id-1367_AU1-66_AU10Open-66_AU15-33_AU6-100	1	1	2	7	18	test_extra	id-1367_AU1-66_AU10Open-66_AU15-33_AU6-100	valence	-0.17663404877849165		3.1271974718983984
id-1367_AU1-66_AU10Open-66_AU15-33_AU6-100	1	1	2	7	18	test_extra	id-1367_AU1-66_AU10Open-66_AU15-33_AU6-100	arousal	-0.5570766153783199		3.1271974718983984
id-1341_AU14-100_AU15-100_AU24-100_AU6-100	1	1	2	7	19	train	id-1341_AU14-100_AU15-100_AU24-100_AU6-100	valence	0.0027174469042844872		3.7107920362013833
id-1341_AU14-100_AU15-100_AU24-100_AU6-100	1	1	2	7	19	train	id-1341_AU14-100_AU15-100_AU24-100_AU6-100	arousal	-0.5217498056226214		3.7107920362013833
id-1344_AU13-66_AU14-66_AU24-33_AU9-33	1	1	2	7	20	test	id-1344_AU13-66_AU14-66_AU24-33_AU9-33	valence	-0.2255480930556124		8.769671408920658
id-1344_AU13-66_AU14-66_AU24-33_AU9-33	1	1	2	7	20	test	id-1344_AU13-66_AU14-66_AU24-33_AU9-33	arousal	-0.29891915947129355		8.769671408920658
id-1335_AU11-66_AU17-66_AU25-66_AU6-33	1	1	2	7	21	train	id-1335_AU11-66_AU17-66_AU25-66_AU6-33	valence	-0.11685021688423293		1.0271464884672241
id-1335_AU11-66_AU17-66_AU25-66_AU6-33	1	1	2	7	21	train	id-1335_AU11-66_AU17-66_AU25-66_AU6-33	arousal	-0.864148115562467		1.0271464884672241
id-1362_AU13-100_AU20-33_AU43-33	1	1	2	7	22	test_extra	id-1362_AU13-100_AU20-33_AU43-33	valence	-0.0054348938085689745		1.185427552967667
id-1362_AU13-100_AU20-33_AU43-33	1	1	2	7	22	test_extra	id-1362_AU13-100_AU20-33_AU43-33	arousal	-0.7119710889225355		1.185427552967667
id-1273_AU10Open-66_AU12-66_AU25-66	1	1	2	7	23	test_extra	id-1273_AU10Open-66_AU12-66_AU25-66	valence	0.6277302348897165		0.9686471520963096
id-1273_AU10Open-66_AU12-66_AU25-66	1	1	2	7	23	test_extra	id-1273_AU10Open-66_AU12-66_AU25-66	arousal	0.6413174694111391		0.9686471520963096
id-1362_AU5-33_AU6-66_AU7-33	1	1	2	7	24	test	id-1362_AU5-33_AU6-66_AU7-33	valence	-0.07880596022425011		0.9437328866670214
id-1362_AU5-33_AU6-66_AU7-33	1	1	2	7	24	test	id-1362_AU5-33_AU6-66_AU7-33	arousal	-0.7065361951139666		0.9437328866670214
id-1342_AU1-100_AU14-100_AU15-66_AU5-100_AU7-100	1	1	2	7	25	test	id-1342_AU1-100_AU14-100_AU15-66_AU5-100_AU7-100	valence	-0.19565617710848307		1.126978022790354
id-1342_AU1-100_AU14-100_AU15-66_AU5-100_AU7-100	1	1	2	7	25	test	id-1342_AU1-100_AU14-100_AU15-66_AU5-100_AU7-100	arousal	-0.6005557658468715		1.126978022790354
id-1376_AU10Open-100_AU11-66_AU25-33_AU27i-66_AU9-100	1	1	2	7	26	test_extra	id-1376_AU10Open-100_AU11-66_AU25-33_AU27i-66_AU9-100	valence	-0.6820791729754062		1.0519587266635426
id-1376_AU10Open-100_AU11-66_AU25-33_AU27i-66_AU9-100	1	1	2	7	26	test_extra	id-1376_AU10Open-100_AU11-66_AU25-33_AU27i-66_AU9-100	arousal	0.6521872570282768		1.0519587266635426
id-1378_AU1-66_AU20-66_AU7-33	1	1	2	7	27	test	id-1378_AU1-66_AU20-66_AU7-33	valence	0.05163149118140525		2.118842407468037
id-1378_AU1-66_AU20-66_AU7-33	1	1	2	7	27	test	id-1378_AU1-66_AU20-66_AU7-33	arousal	-0.4646834206326473		2.118842407468037
id-1377_AU24-100	1	1	2	7	28	test_extra	id-1377_AU24-100	valence	0.10869787617137948		2.785681232512616
id-1377_AU24-100	1	1	2	7	28	test_extra	id-1377_AU24-100	arousal	-0.33424596922699185		2.785681232512616
id-1345_AU12-33_AU27i-66_AU7-100_AU9-66	1	1	2	7	29	test_extra	id-1345_AU12-33_AU27i-66_AU7-100_AU9-66	valence	-0.1820689425870606		1.6855016585459452
id-1345_AU12-33_AU27i-66_AU7-100_AU9-66	1	1	2	7	29	test_extra	id-1345_AU12-33_AU27i-66_AU7-100_AU9-66	arousal	0.6712093853582682		1.6855016585459452
id-1335_AU43-66_AU5-66	1	1	2	7	30	test	id-1335_AU43-66_AU5-66	valence	0.0		2.343921425748704
id-1335_AU43-66_AU5-66	1	1	2	7	30	test	id-1335_AU43-66_AU5-66	arousal	-0.9619762041167084		2.343921425748704
id-1360_AU1-100_AU11-66	1	1	2	7	31	test	id-1360_AU1-100_AU11-66	valence	-0.14130723902279332		0.8269612094272816
id-1360_AU1-100_AU11-66	1	1	2	7	31	test	id-1360_AU1-100_AU11-66	arousal	-0.7907770491467857		0.8269612094272816
id-1260_AU9-33	1	1	2	7	32	test_extra	id-1260_AU9-33	valence	-0.07880596022425011		0.9437162846033972
id-1260_AU9-33	1	1	2	7	32	test_extra	id-1260_AU9-33	arousal	-0.7174059827311046		0.9437162846033972
id-1291_AU12-33_AU17-100_AU5-66	1	1	2	7	33	test_extra	id-1291_AU12-33_AU17-100_AU5-66	valence	0.4809881020583541		1.7521344972483348
id-1291_AU12-33_AU17-100_AU5-66	1	1	2	7	33	test_extra	id-1291_AU12-33_AU17-100_AU5-66	arousal	0.3858774604083972		1.7521344972483348
id-1279_AU1-33_AU14-33_AU26-33	1	1	2	7	34	test_extra	id-1279_AU1-33_AU14-33_AU26-33	valence	0.9511064164995704		1.1270097176411582
id-1279_AU1-33_AU14-33_AU26-33	1	1	2	7	34	test_extra	id-1279_AU1-33_AU14-33_AU26-33	arousal	0.14945957973564675		1.1270097176411582
id-1311_AU10Open-100_AU13-100_AU14-33_AU16Open-33	1	1	2	7	35	test_extra	id-1311_AU10Open-100_AU13-100_AU14-33_AU16Open-33	valence	0.9076272660310184		1.1352174764797385
id-1311_AU10Open-100_AU13-100_AU14-33_AU16Open-33	1	1	2	7	35	test_extra	id-1311_AU10Open-100_AU13-100_AU14-33_AU16Open-33	arousal	0.8424085403281909		1.1352174764797385
id-1290_AU10Open-33_AU2-66_AU9-33	1	1	2	7	36	test_extra	id-1290_AU10Open-33_AU2-66_AU9-33	valence	-0.4510961861112248		10.445037054299064
id-1290_AU10Open-33_AU2-66_AU9-33	1	1	2	7	36	test_extra	id-1290_AU10Open-33_AU2-66_AU9-33	arousal	0.5217498056226214		10.445037054299064
id-1356_AU20-33_AU27i-66_AU4-66_AU43-33	1	1	2	8	1	test_extra	id-1356_AU20-33_AU27i-66_AU4-66_AU43-33	emotion	Verrassing	0.6250655552371822	2.636592278349781
id-1347_AU11-100_AU16Open-100_AU22-100_AU24-33	1	1	2	8	2	test_extra	id-1347_AU11-100_AU16Open-100_AU22-100_AU24-33	emotion	Walging	0.150067478602971	0.8196617344447077
id-1361_AU13-66_AU6-33	1	1	2	8	3	test_extra	id-1361_AU13-66_AU6-33	emotion	Geen van allen	0.0	1.1945855536077945
id-1347_AU20-100_AU5-100	1	1	2	8	4	train	id-1347_AU20-100_AU5-100	emotion	Bang	0.5415724129515366	1.6530693745944518
id-1347_AU17-66_AU26-100_AU27i-100_AU9-33	1	1	2	8	5	test_extra	id-1347_AU17-66_AU26-100_AU27i-100_AU9-33	emotion	Verrassing	0.5703368247874113	1.0781371638422572
id-1370_AU10Open-100_AU2-33_AU27i-66_AU5-66	1	1	2	8	6	test	id-1370_AU10Open-100_AU2-33_AU27i-66_AU5-66	emotion	Verrassing	0.5204231529746962	9.47916425811036
id-1280_AU11-33_AU17-66_AU2-66_AU26-66_AU9-66	1	1	2	8	7	test	id-1280_AU11-33_AU17-66_AU2-66_AU26-66_AU9-66	emotion	Boos	0.5369092647461153	1.5781493889990088
id-1295_AU24-100_AU27i-33	1	1	2	8	8	train	id-1295_AU24-100_AU27i-33	emotion	Verrassing	0.3062371994746108	3.8700387371445686
id-1291_AU4-100_AU43-33_AU7-66	1	1	2	8	9	test	id-1291_AU4-100_AU43-33_AU7-66	emotion	Verdrietig	0.05791442334098864	1.0030611188403782
id-1294_AU11-33_AU14-33_AU17-33_AU4-100	1	1	2	8	10	train	id-1294_AU11-33_AU14-33_AU17-33_AU4-100	emotion	Blij	0.5196840120680606	0.9779702678151808
id-1366_AU15-100_AU25-66_AU27i-100_AU43-33	1	1	2	8	11	test_extra	id-1366_AU15-100_AU25-66_AU27i-100_AU43-33	emotion	Verrassing	0.27393280333724523	6.403580491789397
id-1380_AU5-66	1	1	2	8	12	train	id-1380_AU5-66	emotion	Geen van allen	0.0	0.9197640333477466
id-1347_AU22-100_AU6-100	1	1	2	8	13	test_extra	id-1347_AU22-100_AU6-100	emotion	Geen van allen	0.0	2.3866189171167207
id-1373_AU1-33_AU15-100_AU4-66_AU7-66_AU9-66	1	1	2	8	14	train	id-1373_AU1-33_AU15-100_AU4-66_AU7-66_AU9-66	emotion	Bang	0.1397444678903685	1.3114215261166464
id-1370_AU1-33_AU26-66_AU7-100	1	1	2	8	15	test_extra	id-1370_AU1-33_AU26-66_AU7-100	emotion	Blij	0.6067049620053951	1.186399528380207
id-1363_AU25-33_AU27i-66	1	1	2	8	16	train	id-1363_AU25-33_AU27i-66	emotion	Verrassing	0.10504216619381317	1.3279592953595056
id-1367_AU14-66_AU2-100_AU20-66_AU9-33	1	1	2	8	17	test_extra	id-1367_AU14-66_AU2-100_AU20-66_AU9-33	emotion	Boos	0.4949583358179216	1.6531366884191812
id-1285_AU27i-100_AU4-33_AU6-100	1	1	2	8	18	test_extra	id-1285_AU27i-100_AU4-33_AU6-100	emotion	Verrassing	0.6347811986090671	1.3280631337265731
id-1354_AU14-100_AU2-100_AU20-100_AU4-66	1	1	2	8	19	train	id-1354_AU14-100_AU2-100_AU20-100_AU4-66	emotion	Verdrietig	0.2887732999323087	1.0530653297273602
id-1363_AU1-33_AU15-100_AU2-66_AU22-66_AU5-100	1	1	2	8	20	test	id-1363_AU1-33_AU15-100_AU2-66_AU22-66_AU5-100	emotion	Verrassing	0.05965314160428211	1.0696836944480308
id-1302_AU15-66_AU24-100_AU25-100_AU43-33	1	1	2	8	21	test	id-1302_AU15-66_AU24-100_AU25-100_AU43-33	emotion	Geen van allen	0.0	2.20319659168672
id-1355_AU12-66_AU13-100_AU27i-100_AU5-100	1	1	2	8	22	test_extra	id-1355_AU12-66_AU13-100_AU27i-100_AU5-100	emotion	Verrassing	0.6120282161745986	3.603381206644373
id-1341_AU16Open-33_AU27i-100	1	1	2	8	23	train	id-1341_AU16Open-33_AU27i-100	emotion	Verrassing	0.31282262792242715	4.18692234248465
id-1315_AU14-66_AU22-33_AU24-66_AU6-100	1	1	2	8	24	train	id-1315_AU14-66_AU22-33_AU24-66_AU6-100	emotion	Blij	0.4477690174266089	0.7196255419448789
id-1293_AU6-33_AU7-66	1	1	2	8	25	test_extra	id-1293_AU6-33_AU7-66	emotion	Walging	0.11583310952051773	13.554595889148006
id-1264_AU10Open-33_AU25-66_AU4-66	1	1	2	8	26	test	id-1264_AU10Open-33_AU25-66_AU4-66	emotion	Bang	0.15379017903666298	2.4282840619271155
id-1335_AU20-33_AU22-100_AU4-100_AU7-66	1	1	2	8	27	test_extra	id-1335_AU20-33_AU22-100_AU4-100_AU7-66	emotion	Verdrietig	0.13816586616186166	1.6032305806402292
id-1318_AU12-100_AU14-100_AU26-33_AU6-66	1	1	2	8	28	test_extra	id-1318_AU12-100_AU14-100_AU26-33_AU6-66	emotion	Verrassing	0.1679221828837615	1.6114981069122225
id-1310_AU14-100_AU15-66_AU2-66_AU24-100_AU43-66	1	1	2	8	29	test_extra	id-1310_AU14-100_AU15-66_AU2-66_AU24-100_AU43-66	emotion	Bang	0.11725271532530668	6.253822323497842
id-1285_AU16Open-100	1	1	2	8	30	train	id-1285_AU16Open-100	emotion	Geen van allen	0.0	1.853073238346952
id-1279_AU12-100_AU15-100_AU26-100	1	1	2	8	31	train	id-1279_AU12-100_AU15-100_AU26-100	emotion	Blij	0.7965474140245092	1.403137065739429
id-1296_AU1-66_AU11-33	1	1	2	8	32	test_extra	id-1296_AU1-66_AU11-33	emotion	Bang	0.027994145929673902	3.720068967994848
id-1290_AU24-33_AU25-66_AU4-66	1	1	2	8	33	test_extra	id-1290_AU24-33_AU25-66_AU4-66	emotion	Boos	0.13705927243560426	1.169706001585837
id-1373_AU11-33_AU13-100_AU16Open-66_AU43-33	1	1	2	8	34	test	id-1373_AU11-33_AU13-100_AU16Open-66_AU43-33	emotion	Bang	0.0782522129591237	5.828730687648204
id-1344_AU16Open-33	1	1	2	8	35	test_extra	id-1344_AU16Open-33	emotion	Geen van allen	0.0	0.7445705966565583
id-1309_AU27i-33_AU4-100_AU43-66	1	1	2	8	36	test_extra	id-1309_AU27i-33_AU4-100_AU43-66	emotion	Geen van allen		
id-1367_AU11-100_AU16Open-66_AU25-100	1	1	3	9	1	test_extra	id-1367_AU11-100_AU16Open-66_AU25-100	valence	-0.2771795842370177		2.0606539824884758
id-1367_AU11-100_AU16Open-66_AU25-100	1	1	3	9	1	test_extra	id-1367_AU11-100_AU16Open-66_AU25-100	arousal	0.3451157568441299		2.0606539824884758
id-1380_AU10Open-33_AU13-33_AU16Open-100_AU22-33_AU43-66	1	1	3	9	2	test	id-1380_AU10Open-33_AU13-33_AU16Open-100_AU22-33_AU43-66	valence	-0.4103344825469576		1.802141424837828
id-1380_AU10Open-33_AU13-33_AU16Open-100_AU22-33_AU43-66	1	1	3	9	2	test	id-1380_AU10Open-33_AU13-33_AU16Open-100_AU22-33_AU43-66	arousal	0.0815234071285346		1.802141424837828
id-1307_AU17-66_AU2-100_AU7-66	1	1	3	9	3	train	id-1307_AU17-66_AU2-100_AU7-66	valence	-0.3315285223227074		1.0854179237694552
id-1307_AU17-66_AU2-100_AU7-66	1	1	3	9	3	train	id-1307_AU17-66_AU2-100_AU7-66	arousal	-0.3179412878012849		1.0854179237694552
id-1373_AU1-66	1	1	3	9	4	test_extra	id-1373_AU1-66	valence	-0.0054348938085689745		1.0020885397161692
id-1373_AU1-66	1	1	3	9	4	test_extra	id-1373_AU1-66	arousal	-0.8505608810410444		1.0020885397161692
id-1294_AU11-66_AU43-33_AU5-33	1	1	3	9	5	train	id-1294_AU11-66_AU43-33_AU5-33	valence	0.13587234521422434		0.8938080638336032
id-1294_AU11-66_AU43-33_AU5-33	1	1	3	9	5	train	id-1294_AU11-66_AU43-33_AU5-33	arousal	-0.5353370401440439		0.8938080638336032
id-1376_AU16Open-100_AU43-66_AU5-33	1	1	3	9	6	train	id-1376_AU16Open-100_AU43-66_AU5-33	valence	0.23370043376846586		2.585621827308387
id-1376_AU16Open-100_AU43-66_AU5-33	1	1	3	9	6	train	id-1376_AU16Open-100_AU43-66_AU5-33	arousal	-0.21467830543847446		2.585621827308387
id-1339_AU22-33_AU25-100_AU27i-100_AU4-66	1	1	3	9	7	test_extra	id-1339_AU22-33_AU25-100_AU27i-100_AU4-66	valence	0.6684919384539837		1.0353572658632402
id-1339_AU22-33_AU25-100_AU27i-100_AU4-66	1	1	3	9	7	test_extra	id-1339_AU22-33_AU25-100_AU27i-100_AU4-66	arousal	0.6739268322625528		1.0353572658632402
id-1302_AU1-100_AU11-66_AU13-33_AU24-33	1	1	3	9	8	train	id-1302_AU1-100_AU11-66_AU13-33_AU24-33	valence	-0.21467830543847446		4.794203525010745
id-1302_AU1-100_AU11-66_AU13-33_AU24-33	1	1	3	9	8	train	id-1302_AU1-100_AU11-66_AU13-33_AU24-33	arousal	-0.16032936735278475		4.794203525010745
id-1295_AU24-100_AU25-100	1	1	3	9	9	test_extra	id-1295_AU24-100_AU25-100	valence	-0.13315489830993985		0.8102628529404683
id-1295_AU24-100_AU25-100	1	1	3	9	9	test_extra	id-1295_AU24-100_AU25-100	arousal	-0.6386000225068544		0.8102628529404683
id-1290_AU22-33	1	1	3	9	10	test_extra	id-1290_AU22-33	valence	0.0027174469042844872		2.6522054635279337
id-1290_AU22-33	1	1	3	9	10	test_extra	id-1290_AU22-33	arousal	0.0		2.6522054635279337
id-1273_AU1-33_AU13-33_AU26-33	1	1	3	9	11	test	id-1273_AU1-33_AU13-33_AU26-33	valence	0.5679464029954577		3.435786685808125
id-1273_AU1-33_AU13-33_AU26-33	1	1	3	9	11	test	id-1273_AU1-33_AU13-33_AU26-33	arousal	0.1657642611613537		3.435786685808125
id-1341_AU1-33_AU15-33_AU2-66_AU4-33	1	1	3	9	12	test	id-1341_AU1-33_AU15-33_AU2-66_AU4-33	valence	-0.06793617260711217		1.9854079927163184
id-1341_AU1-33_AU15-33_AU2-66_AU4-33	1	1	3	9	12	test	id-1341_AU1-33_AU15-33_AU2-66_AU4-33	arousal	-0.5380544870483285		1.9854079927163184
id-1361_AU16Open-33_AU24-66_AU25-100	1	1	3	9	13	test_extra	id-1361_AU16Open-33_AU24-66_AU25-100	valence	-0.3831600135041127		2.0189450685984407
id-1361_AU16Open-33_AU24-66_AU25-100	1	1	3	9	13	test_extra	id-1361_AU16Open-33_AU24-66_AU25-100	arousal	-0.14945957973564675		2.0189450685984407
id-1310_AU13-66_AU14-100_AU4-66_AU9-33	1	1	3	9	14	test_extra	id-1310_AU13-66_AU14-100_AU4-66_AU9-33	valence	-0.5434893808568974		1.6021387685077568
id-1310_AU13-66_AU14-100_AU4-66_AU9-33	1	1	3	9	14	test_extra	id-1310_AU13-66_AU14-100_AU4-66_AU9-33	arousal	0.2364178806727504		1.6021387685077568
id-1270_AU26-100	1	1	3	9	15	train	id-1270_AU26-100	valence	0.6657744915496994		1.4186138121331169
id-1270_AU26-100	1	1	3	9	15	train	id-1270_AU26-100	arousal	0.2798970311413021		1.4186138121331169
id-1355_AU13-66_AU14-100_AU15-100_AU7-33	1	1	3	9	16	test	id-1355_AU13-66_AU14-100_AU15-100_AU7-33	valence	-0.17935149568277614		2.3439389333807408
id-1355_AU13-66_AU14-100_AU15-100_AU7-33	1	1	3	9	16	test	id-1355_AU13-66_AU14-100_AU15-100_AU7-33	arousal	0.4972927834840611		2.3439389333807408
id-1270_AU10Open-33_AU16Open-33_AU22-100_AU7-66	1	1	3	9	17	train	id-1270_AU10Open-33_AU16Open-33_AU22-100_AU7-66	valence	-0.4619659737283627		1.1603690005040337
id-1270_AU10Open-33_AU16Open-33_AU22-100_AU7-66	1	1	3	9	17	train	id-1270_AU10Open-33_AU16Open-33_AU22-100_AU7-66	arousal	0.4809881020583541		1.1603690005040337
id-1293_AU1-100_AU12-33_AU13-33_AU22-100	1	1	3	9	18	test_extra	id-1293_AU1-100_AU12-33_AU13-33_AU22-100	valence	-0.1657642611613537		4.985834514847738
id-1293_AU1-100_AU12-33_AU13-33_AU22-100	1	1	3	9	18	test_extra	id-1293_AU1-100_AU12-33_AU13-33_AU22-100	arousal	0.16032936735278475		4.985834514847738
id-1360_AU12-100_AU43-66_AU7-33	1	1	3	9	19	test_extra	id-1360_AU12-100_AU43-66_AU7-33	valence	-0.3994646949298196		5.5860972500640855
id-1360_AU12-100_AU43-66_AU7-33	1	1	3	9	19	test_extra	id-1360_AU12-100_AU43-66_AU7-33	arousal	-0.19565617710848307		5.5860972500640855
id-1269_AU15-66_AU16Open-66_AU26-33_AU27i-100	1	1	3	9	20	test	id-1269_AU15-66_AU16Open-66_AU26-33_AU27i-100	valence	0.12228511069280193		2.7606564878906283
id-1269_AU15-66_AU16Open-66_AU26-33_AU27i-100	1	1	3	9	20	test	id-1269_AU15-66_AU16Open-66_AU26-33_AU27i-100	arousal	0.7500153455825184		2.7606564878906283
id-1279_AU12-100	1	1	3	9	21	test_extra	id-1279_AU12-100	valence	0.5896859782297337		0.8102782475825734
id-1279_AU12-100	1	1	3	9	21	test_extra	id-1279_AU12-100	arousal	0.6358825756025699		0.8102782475825734
id-1339_AU11-100_AU20-100_AU4-33	1	1	3	9	22	test_extra	id-1339_AU11-100_AU20-100_AU4-33	valence	-0.1847863894913451		3.3272103913222963
id-1339_AU11-100_AU20-100_AU4-33	1	1	3	9	22	test_extra	id-1339_AU11-100_AU20-100_AU4-33	arousal	0.3505506506526989		3.3272103913222963
id-1360_AU16Open-33_AU20-66	1	1	3	9	23	test_extra	id-1360_AU16Open-33_AU20-66	valence	-0.03532680975569833		1.1437895751714675
id-1360_AU16Open-33_AU20-66	1	1	3	9	23	test_extra	id-1360_AU16Open-33_AU20-66	arousal	-0.16032936735278475		1.1437895751714675
id-1274_AU10Open-66_AU2-33_AU43-100_AU9-66	1	1	3	9	24	test	id-1274_AU10Open-66_AU2-33_AU43-100_AU9-66	valence	-0.5869685313254491		0.9437691093535252
id-1274_AU10Open-66_AU2-33_AU43-100_AU9-66	1	1	3	9	24	test	id-1274_AU10Open-66_AU2-33_AU43-100_AU9-66	arousal	0.6875140667839752		0.9437691093535252
id-1291_AU10Open-66_AU15-33_AU20-100_AU4-100	1	1	3	9	25	train	id-1291_AU10Open-66_AU15-33_AU20-100_AU4-100	valence	-0.2527225620984573		3.8691271328743824
id-1291_AU10Open-66_AU15-33_AU20-100_AU4-100	1	1	3	9	25	train	id-1291_AU10Open-66_AU15-33_AU20-100_AU4-100	arousal	0.3777251196955437		3.8691271328743824
id-1297_AU1-66_AU11-66	1	1	3	9	26	test_extra	id-1297_AU1-66_AU11-66	valence	-0.2608749028113107		13.512108489359887
id-1297_AU1-66_AU11-66	1	1	3	9	26	test_extra	id-1297_AU1-66_AU11-66	arousal	0.23370043376846586		13.512108489359887
id-1367_AU17-66	1	1	3	9	27	test_extra	id-1367_AU17-66	valence	0.0		2.052178779483256
id-1367_AU17-66	1	1	3	9	27	test_extra	id-1367_AU17-66	arousal	-0.7934944960510701		2.052178779483256
id-1323_AU22-33_AU5-100_AU9-66	1	1	3	9	28	train	id-1323_AU22-33_AU5-100_AU9-66	valence	-0.19293873020419855		3.4940158613107997
id-1323_AU22-33_AU5-100_AU9-66	1	1	3	9	28	train	id-1323_AU22-33_AU5-100_AU9-66	arousal	-0.5299021463354749		3.4940158613107997
id-1318_AU24-33	1	1	3	9	29	test_extra	id-1318_AU24-33	valence	-0.06521872570282768		0.9936909136304166
id-1318_AU24-33	1	1	3	9	29	test_extra	id-1318_AU24-33	arousal	-0.8967574784138808		0.9936909136304166
id-1289_AU10Open-33_AU2-66_AU24-66	1	1	3	9	30	train	id-1289_AU10Open-33_AU2-66_AU24-66	valence	-0.5299021463354749		1.118734946832774
id-1289_AU10Open-33_AU2-66_AU24-66	1	1	3	9	30	train	id-1289_AU10Open-33_AU2-66_AU24-66	arousal	0.1711991549699227		1.118734946832774
id-1311_AU16Open-100_AU43-100_AU6-66_AU9-100	1	1	3	9	31	test	id-1311_AU16Open-100_AU43-100_AU6-66_AU9-100	valence	-0.5869685313254491		1.5521484429827983
id-1311_AU16Open-100_AU43-100_AU6-66_AU9-100	1	1	3	9	31	test	id-1311_AU16Open-100_AU43-100_AU6-66_AU9-100	arousal	0.6222953410811475		1.5521484429827983
id-1293_AU1-33_AU22-33_AU27i-100	1	1	3	9	32	test_extra	id-1293_AU1-33_AU22-33_AU27i-100	valence	0.2255480930556124		1.5107462145024328
id-1293_AU1-33_AU22-33_AU27i-100	1	1	3	9	32	test_extra	id-1293_AU1-33_AU22-33_AU27i-100	arousal	0.6114255534640095		1.5107462145024328
id-1294_AU16Open-100_AU20-33_AU43-33	1	1	3	9	33	train	id-1294_AU16Open-100_AU20-33_AU43-33	valence	0.4945753365797766		13.145215239729627
id-1294_AU16Open-100_AU20-33_AU43-33	1	1	3	9	33	train	id-1294_AU16Open-100_AU20-33_AU43-33	arousal	0.07608851331996565		13.145215239729627
id-1269_AU11-100_AU25-33_AU43-66	1	1	3	9	34	train	id-1269_AU11-100_AU25-33_AU43-66	valence	-0.14674213283136228		2.0938022682039445
id-1269_AU11-100_AU25-33_AU43-66	1	1	3	9	34	train	id-1269_AU11-100_AU25-33_AU43-66	arousal	-0.4864229958669232		2.0938022682039445
id-1274_AU14-33_AU6-33	1	1	3	9	35	train	id-1274_AU14-33_AU6-33	valence	0.13587234521422434		5.010858353902222
id-1274_AU14-33_AU6-33	1	1	3	9	35	train	id-1274_AU14-33_AU6-33	arousal	-0.15761192044850025		5.010858353902222
id-1285_AU26-33_AU5-100	1	1	3	9	36	test_extra	id-1285_AU26-33_AU5-100	valence	0.09239319474567256		1.4854914558227392
id-1285_AU26-33_AU5-100	1	1	3	9	36	test_extra	id-1285_AU26-33_AU5-100	arousal	0.7418630048696649		1.4854914558227392
id-1289_AU10Open-100_AU4-66_AU43-33	1	1	3	10	1	train	id-1289_AU10Open-100_AU4-66_AU43-33	valence	0.0		5.435894448300132
id-1289_AU10Open-100_AU4-66_AU43-33	1	1	3	10	1	train	id-1289_AU10Open-100_AU4-66_AU43-33	arousal	0.2500051151941728		5.435894448300132
id-1345_AU26-66_AU27i-100_AU9-100	1	1	3	10	2	test_extra	id-1345_AU26-66_AU27i-100_AU9-100	valence	-0.14130723902279332		1.0934919605260802
id-1345_AU26-66_AU27i-100_AU9-100	1	1	3	10	2	test_extra	id-1345_AU26-66_AU27i-100_AU9-100	arousal	0.7527327924868029		1.0934919605260802
id-1306_AU15-66_AU26-66_AU5-66	1	1	3	10	3	test_extra	id-1306_AU15-66_AU26-66_AU5-66	valence	0.13858979211850886		1.0603394488298363
id-1306_AU15-66_AU26-66_AU5-66	1	1	3	10	3	test_extra	id-1306_AU15-66_AU26-66_AU5-66	arousal	0.3478332037484143		1.0603394488298363
id-1341_AU14-66_AU2-100_AU27i-66_AU43-100	1	1	3	10	4	train	id-1341_AU14-66_AU2-100_AU27i-66_AU43-100	valence	0.7119710889225355		1.5522079085594669
id-1341_AU14-66_AU2-100_AU27i-66_AU43-100	1	1	3	10	4	train	id-1341_AU14-66_AU2-100_AU27i-66_AU43-100	arousal	0.6059906596554406		1.5522079085594669
id-1366_AU15-100_AU16Open-33_AU27i-33	1	1	3	10	5	train	id-1366_AU15-100_AU16Open-33_AU27i-33	valence	0.5815336375168803		1.5353676798858942
id-1366_AU15-100_AU16Open-33_AU27i-33	1	1	3	10	5	train	id-1366_AU15-100_AU16Open-33_AU27i-33	arousal	0.40761703564267293		1.5353676798858942
id-1290_AU12-66_AU15-33_AU24-33	1	1	3	10	6	test_extra	id-1290_AU12-66_AU15-33_AU24-33	valence	-0.4320740577812335		1.760550838389463
id-1290_AU12-66_AU15-33_AU24-33	1	1	3	10	6	test_extra	id-1290_AU12-66_AU15-33_AU24-33	arousal	0.2201131992470434		1.760550838389463
id-1306_AU16Open-33_AU17-100_AU22-66_AU4-100	1	1	3	10	7	test_extra	id-1306_AU16Open-33_AU17-100_AU22-66_AU4-100	valence	-0.8125166243810616		0.7268924165091448
id-1306_AU16Open-33_AU17-100_AU22-66_AU4-100	1	1	3	10	7	test_extra	id-1306_AU16Open-33_AU17-100_AU22-66_AU4-100	arousal	0.09511064164995704		0.7268924165091448
id-1291_AU10Open-33_AU11-100_AU15-100	1	1	3	10	8	test_extra	id-1291_AU10Open-33_AU11-100_AU15-100	valence	-0.7119710889225355		1.0354282019570746
id-1291_AU10Open-33_AU11-100_AU15-100	1	1	3	10	8	test_extra	id-1291_AU10Open-33_AU11-100_AU15-100	arousal	0.5434893808568974		1.0354282019570746
id-1289_AU10Open-66_AU15-66_AU43-100_AU7-100	1	1	3	10	9	test_extra	id-1289_AU10Open-66_AU15-66_AU43-100_AU7-100	valence	-0.6331651286982856		1.2606696186139743
id-1289_AU10Open-66_AU15-66_AU43-100_AU7-100	1	1	3	10	9	test_extra	id-1289_AU10Open-66_AU15-66_AU43-100_AU7-100	arousal	0.5380544870483285		1.2606696186139743
id-1335_AU10Open-100_AU27i-66_AU6-66_AU7-33	1	1	3	10	10	test_extra	id-1335_AU10Open-100_AU27i-66_AU6-66_AU7-33	valence	0.24457022138560386		0.7269343744537764
id-1335_AU10Open-100_AU27i-66_AU6-66_AU7-33	1	1	3	10	10	test_extra	id-1335_AU10Open-100_AU27i-66_AU6-66_AU7-33	arousal	0.3750076727912592		0.7269343744537764
id-1318_AU22-33_AU25-33_AU26-66	1	1	3	10	11	test_extra	id-1318_AU22-33_AU25-33_AU26-66	valence	0.19022128329991408		4.4191767730480915
id-1318_AU22-33_AU25-33_AU26-66	1	1	3	10	11	test_extra	id-1318_AU22-33_AU25-33_AU26-66	arousal	0.1657642611613537		4.4191767730480915
id-1378_AU10Open-66_AU22-66_AU25-100_AU6-33	1	1	3	10	12	train	id-1378_AU10Open-66_AU22-66_AU25-100_AU6-33	valence	0.6793617260711217		1.4187617214347483
id-1378_AU10Open-66_AU22-66_AU25-100_AU6-33	1	1	3	10	12	train	id-1378_AU10Open-66_AU22-66_AU25-100_AU6-33	arousal	0.13858979211850886		1.4187617214347483
id-1376_AU1-100_AU13-33_AU14-33_AU27i-66	1	1	3	10	13	test	id-1376_AU1-100_AU13-33_AU14-33_AU27i-66	valence	0.6087081065597252		1.0437343657604288
id-1376_AU1-100_AU13-33_AU14-33_AU27i-66	1	1	3	10	13	test	id-1376_AU1-100_AU13-33_AU14-33_AU27i-66	arousal	0.4619659737283627		1.0437343657604288
id-1377_AU17-66_AU24-33_AU4-100	1	1	3	10	14	test	id-1377_AU17-66_AU24-33_AU4-100	valence	-0.29348426566272456		1.1686452805915906
id-1377_AU17-66_AU24-33_AU4-100	1	1	3	10	14	test	id-1377_AU17-66_AU24-33_AU4-100	arousal	-0.0842408540328191		1.1686452805915906
id-1345_AU11-100_AU20-66	1	1	3	10	15	train	id-1345_AU11-100_AU20-66	valence	-0.2880493718541556		0.7853953751473455
id-1345_AU11-100_AU20-66	1	1	3	10	15	train	id-1345_AU11-100_AU20-66	arousal	-0.24457022138560386		0.7853953751473455
id-1354_AU6-100	1	1	3	10	16	test_extra	id-1354_AU6-100	valence	-0.010869787617137949		0.8187250761502582
id-1354_AU6-100	1	1	3	10	16	test_extra	id-1354_AU6-100	arousal	-0.5462068277611818		0.8187250761502582
id-1293_AU14-33_AU15-33_AU43-66	1	1	3	10	17	test_extra	id-1293_AU14-33_AU15-33_AU43-66	valence	-0.04891404427712077		1.160452916394206
id-1293_AU14-33_AU15-33_AU43-66	1	1	3	10	17	test_extra	id-1293_AU14-33_AU15-33_AU43-66	arousal	-0.6494698101239924		1.160452916394206
id-1309_AU20-100_AU25-66	1	1	3	10	18	test_extra	id-1309_AU20-100_AU25-66	valence	-0.0027174469042844872		1.0438059055659323
id-1309_AU20-100_AU25-66	1	1	3	10	18	test_extra	id-1309_AU20-100_AU25-66	arousal	-0.5489242746654663		1.0438059055659323
id-1363_AU13-66_AU22-100_AU7-66	1	1	3	10	19	test_extra	id-1363_AU13-66_AU22-100_AU7-66	valence	-0.0054348938085689745		1.118723476314699
id-1363_AU13-66_AU22-100_AU7-66	1	1	3	10	19	test_extra	id-1363_AU13-66_AU22-100_AU7-66	arousal	-0.804364283668208		1.118723476314699
id-1290_AU11-100_AU15-33	1	1	3	10	20	train	id-1290_AU11-100_AU15-33	valence	-0.3451157568441299		0.7686134046271036
id-1290_AU11-100_AU15-33	1	1	3	10	20	train	id-1290_AU11-100_AU15-33	arousal	-0.6114255534640095		0.7686134046271036
id-1297_AU11-100_AU24-33	1	1	3	10	21	test	id-1297_AU11-100_AU24-33	valence	-0.13043745140565535		1.3770509964106168
id-1297_AU11-100_AU24-33	1	1	3	10	21	test	id-1297_AU11-100_AU24-33	arousal	-0.8070817305724926		1.3770509964106168
id-1380_AU1-100_AU15-66_AU7-66	1	1	3	10	22	train	id-1380_AU1-100_AU15-66_AU7-66	valence	-0.16032936735278475		0.8604237269464647
id-1380_AU1-100_AU15-66_AU7-66	1	1	3	10	22	train	id-1380_AU1-100_AU15-66_AU7-66	arousal	-0.5353370401440439		0.8604237269464647
id-1315_AU12-66_AU25-66_AU6-33_AU7-100	1	1	3	10	23	train	id-1315_AU12-66_AU25-66_AU6-33_AU7-100	valence	0.1820689425870606		1.101985878585765
id-1315_AU12-66_AU25-66_AU6-33_AU7-100	1	1	3	10	23	train	id-1315_AU12-66_AU25-66_AU6-33_AU7-100	arousal	0.24457022138560386		1.101985878585765
id-1370_AU2-33_AU27i-66	1	1	3	10	24	test_extra	id-1370_AU2-33_AU27i-66	valence	0.6494698101239924		0.9852772891908901
id-1370_AU2-33_AU27i-66	1	1	3	10	24	test_extra	id-1370_AU2-33_AU27i-66	arousal	0.2472876682898883		0.9852772891908901
id-1367_AU10Open-100_AU2-33_AU5-33_AU6-33	1	1	3	10	25	train	id-1367_AU10Open-100_AU2-33_AU5-33_AU6-33	valence	-0.2880493718541556		1.326992451494334
id-1367_AU10Open-100_AU2-33_AU5-33_AU6-33	1	1	3	10	25	train	id-1367_AU10Open-100_AU2-33_AU5-33_AU6-33	arousal	0.0027174469042844872		1.326992451494334
id-1344_AU1-33_AU11-33_AU4-33_AU7-66	1	1	3	10	26	test_extra	id-1344_AU1-33_AU11-33_AU4-33_AU7-66	valence	-0.12228511069280193		0.5519905724422642
id-1344_AU1-33_AU11-33_AU4-33_AU7-66	1	1	3	10	26	test_extra	id-1344_AU1-33_AU11-33_AU4-33_AU7-66	arousal	-0.5978383189425871		0.5519905724422642
id-1373_AU15-33_AU16Open-33_AU2-33_AU4-100	1	1	3	10	27	test_extra	id-1373_AU15-33_AU16Open-33_AU2-33_AU4-100	valence	-0.13315489830993985		1.0272406674512242
id-1373_AU15-33_AU16Open-33_AU2-33_AU4-100	1	1	3	10	27	test_extra	id-1373_AU15-33_AU16Open-33_AU2-33_AU4-100	arousal	-0.5924034251340181		1.0272406674512242
id-1260_AU12-66_AU25-33	1	1	3	10	28	test	id-1260_AU12-66_AU25-33	valence	0.1630468142570692		0.9352954156265696
id-1260_AU12-66_AU25-33	1	1	3	10	28	test	id-1260_AU12-66_AU25-33	arousal	-0.3451157568441299		0.9352954156265696
id-1370_AU13-100_AU16Open-66_AU20-100	1	1	3	10	29	test_extra	id-1370_AU13-100_AU16Open-66_AU20-100	valence	0.6847966198796908		1.9771637093363097
id-1370_AU13-100_AU16Open-66_AU20-100	1	1	3	10	29	test_extra	id-1370_AU13-100_AU16Open-66_AU20-100	arousal	0.23098298686418134		1.9771637093363097
id-1345_AU10Open-33_AU27i-100	1	1	3	10	30	test_extra	id-1345_AU10Open-33_AU27i-100	valence	-0.3559855444612677		1.1445852668448424
id-1345_AU10Open-33_AU27i-100	1	1	3	10	30	test_extra	id-1345_AU10Open-33_AU27i-100	arousal	0.5353370401440439		1.1445852668448424
id-1302_AU17-66_AU27i-100_AU4-100_AU6-33_AU7-100	1	1	3	10	31	train	id-1302_AU17-66_AU27i-100_AU4-100_AU6-33_AU7-100	valence	-0.5869685313254491		0.8602918159967885
id-1302_AU17-66_AU27i-100_AU4-100_AU6-33_AU7-100	1	1	3	10	31	train	id-1302_AU17-66_AU27i-100_AU4-100_AU6-33_AU7-100	arousal	0.50272767729263		0.8602918159967885
id-1354_AU11-100_AU15-100_AU4-66_AU9-66	1	1	3	10	32	train	id-1354_AU11-100_AU15-100_AU4-66_AU9-66	valence	-0.7119710889225355		1.7609151782417032
id-1354_AU11-100_AU15-100_AU4-66_AU9-66	1	1	3	10	32	train	id-1354_AU11-100_AU15-100_AU4-66_AU9-66	arousal	0.5434893808568974		1.7609151782417032
id-1270_AU16Open-66_AU20-66_AU6-66	1	1	3	10	33	train	id-1270_AU16Open-66_AU20-66_AU6-66	valence	-0.1820689425870606		0.9604086039744288
id-1270_AU16Open-66_AU20-66_AU6-66	1	1	3	10	33	train	id-1270_AU16Open-66_AU20-66_AU6-66	arousal	0.2744621373327332		0.9604086039744288
id-1306_AU24-66_AU43-100_AU7-100	1	1	3	10	34	test	id-1306_AU24-66_AU43-100_AU7-100	valence	-0.2500051151941728		0.7935578556289329
id-1306_AU24-66_AU43-100_AU7-100	1	1	3	10	34	test	id-1306_AU24-66_AU43-100_AU7-100	arousal	-0.010869787617137949		0.7935578556289329
id-1358_AU11-100_AU12-100_AU14-100_AU16Open-66_AU6-100	1	1	3	10	35	test	id-1358_AU11-100_AU12-100_AU14-100_AU16Open-66_AU6-100	valence	0.4293566108769489		0.9519521160236764
id-1358_AU11-100_AU12-100_AU14-100_AU16Open-66_AU6-100	1	1	3	10	35	test	id-1358_AU11-100_AU12-100_AU14-100_AU16Open-66_AU6-100	arousal	0.418486823259811		0.9519521160236764
id-1294_AU11-66_AU20-33_AU25-33	1	1	3	10	36	test	id-1294_AU11-66_AU20-33_AU25-33	valence	0.13858979211850886		2.8190275355809717
id-1294_AU11-66_AU20-33_AU25-33	1	1	3	10	36	test	id-1294_AU11-66_AU20-33_AU25-33	arousal	-0.5299021463354749		2.8190275355809717
id-1291_AU15-66_AU20-66_AU7-100	1	1	3	11	1	test_extra	id-1291_AU15-66_AU20-66_AU7-100	emotion	Verdrietig	0.26868895560869394	2.5867239025355957
id-1354_AU16Open-33_AU20-33_AU25-100_AU7-66	1	1	3	11	2	train	id-1354_AU16Open-33_AU20-33_AU25-100_AU7-66	emotion	Bang	0.20841456908021397	0.6863492694037632
id-1318_AU22-100_AU26-100_AU27i-33_AU4-33_AU6-33	1	1	3	11	3	test	id-1318_AU22-100_AU26-100_AU27i-33_AU4-33_AU6-33	emotion	Boos	0.3948084354563653	1.5280138708740196
id-1285_AU16Open-33_AU5-33	1	1	3	11	4	test	id-1285_AU16Open-33_AU5-33	emotion	Geen van allen	0.0	1.1530852220193992
id-1373_AU1-66_AU24-33_AU26-66_AU7-33	1	1	3	11	5	test_extra	id-1373_AU1-66_AU24-33_AU26-66_AU7-33	emotion	Bang	0.10840614211784598	1.0780918854843549
id-1318_AU1-100_AU13-66_AU2-100	1	1	3	11	6	train	id-1318_AU1-100_AU13-66_AU2-100	emotion	Geen van allen	0.0	1.0279986271607413
id-1260_AU17-33_AU24-100_AU6-33	1	1	3	11	7	test_extra	id-1260_AU17-33_AU24-100_AU6-33	emotion	Geen van allen	0.0	5.5619282664029015
id-1302_AU14-100_AU17-33_AU26-66_AU9-33	1	1	3	11	8	test_extra	id-1302_AU14-100_AU17-33_AU26-66_AU9-33	emotion	Walging	0.6053977056971792	1.8447661689770032
id-1297_AU10Open-66_AU5-66_AU9-100	1	1	3	11	9	train	id-1297_AU10Open-66_AU5-66_AU9-100	emotion	Boos	0.5614182546412536	0.6863387044541014
id-1306_AU22-66_AU25-33_AU43-33	1	1	3	11	10	test_extra	id-1306_AU22-66_AU25-33_AU43-33	emotion	Geen van allen	0.0	0.5028188796268296
id-1318_AU1-33_AU16Open-33_AU20-100_AU43-66	1	1	3	11	11	test_extra	id-1318_AU1-33_AU16Open-33_AU20-100_AU43-66	emotion	Verdrietig	0.279261503587787	3.220023538709029
id-1285_AU24-66_AU9-66	1	1	3	11	12	test_extra	id-1285_AU24-66_AU9-66	emotion	Boos	0.3416292969389492	1.6864908397355975
id-1269_AU17-33	1	1	3	11	13	test_extra	id-1269_AU17-33	emotion	Geen van allen	0.0	0.8113314221845941
id-1285_AU26-100_AU4-66_AU7-100_AU9-33	1	1	3	11	14	test_extra	id-1285_AU26-100_AU4-66_AU7-100_AU9-33	emotion	Boos	0.6746728442526512	1.1031887736235149
id-1290_AU11-66_AU16Open-100_AU43-33_AU6-33	1	1	3	11	15	test_extra	id-1290_AU11-66_AU16Open-100_AU43-33_AU6-33	emotion	Geen van allen	0.0	1.7447815938039644
id-1367_AU16Open-66_AU2-100_AU7-100	1	1	3	11	16	train	id-1367_AU16Open-66_AU2-100_AU7-100	emotion	Verrassing	0.09862213016881542	1.0531613198463674
id-1291_AU20-33_AU24-100_AU25-33_AU27i-100	1	1	3	11	17	test	id-1291_AU20-33_AU24-100_AU25-33_AU27i-100	emotion	Verrassing	0.3124346703282148	0.6533223296864891
id-1342_AU1-100_AU27i-33	1	1	3	11	18	test_extra	id-1342_AU1-100_AU27i-33	emotion	Verrassing	0.6480404773755818	0.7030938098141633
id-1342_AU10Open-66_AU25-66_AU26-33_AU5-100	1	1	3	11	19	test_extra	id-1342_AU10Open-66_AU25-66_AU26-33_AU5-100	emotion	Boos	0.6131374870807312	0.5695072597809485
id-1344_AU10Open-66	1	1	3	11	20	test_extra	id-1344_AU10Open-66	emotion	Walging	0.13638011020457444	1.1779611517731607
id-1266_AU15-33	1	1	3	11	21	train	id-1266_AU15-33	emotion	Geen van allen	0.0	3.8698672830960286
id-1377_AU10Open-66_AU16Open-66_AU26-100	1	1	3	11	22	train	id-1377_AU10Open-66_AU16Open-66_AU26-100	emotion	Boos	0.4687107031243085	4.5951879368794835
id-1344_AU10Open-33_AU16Open-100	1	1	3	11	23	test_extra	id-1344_AU10Open-33_AU16Open-100	emotion	Boos	0.3226886504422146	1.5864772864133556
id-1289_AU11-100_AU7-100	1	1	3	11	24	test_extra	id-1289_AU11-100_AU7-100	emotion	Walging	0.022494879789844324	1.111352461527531
id-1291_AU15-100_AU22-66	1	1	3	11	25	train	id-1291_AU15-100_AU22-66	emotion	Verdrietig	0.17821780383043162	0.7863546726212007
id-1367_AU25-66_AU4-66_AU6-33	1	1	3	11	26	test	id-1367_AU25-66_AU4-66_AU6-33	emotion	Boos	0.17592239852289504	1.0696788647564972
id-1260_AU22-100_AU25-100_AU26-100	1	1	3	11	27	test	id-1260_AU22-100_AU25-100_AU26-100	emotion	Verrassing	0.6628038002797093	0.9615010198194796
id-1361_AU12-33_AU15-33_AU16Open-100_AU6-66	1	1	3	11	28	test	id-1361_AU12-33_AU15-33_AU16Open-100_AU6-66	emotion	Blij	0.19858516630492729	2.778448467644921
id-1294_AU10Open-33_AU7-100	1	1	3	11	29	test_extra	id-1294_AU10Open-33_AU7-100	emotion	Bang	0.21719508609983765	0.7862281950756369
id-1289_AU22-33_AU4-33_AU6-66	1	1	3	11	30	test_extra	id-1289_AU22-33_AU4-33_AU6-66	emotion	Verdrietig	0.07446793748411777	3.1533327437082326
id-1290_AU10Open-33_AU14-66_AU24-66	1	1	3	11	31	test	id-1290_AU10Open-33_AU14-66_AU24-66	emotion	Boos	0.13915344714916278	3.14507698981015
id-1341_AU14-33_AU2-33	1	1	3	11	32	test_extra	id-1341_AU14-33_AU2-33	emotion	Blij	0.05144360018610857	0.7446086304771597
id-1342_AU12-100_AU20-100_AU6-66	1	1	3	11	33	train	id-1342_AU12-100_AU20-100_AU6-66	emotion	Verrassing	0.11783623910008155	5.8286802777438425
id-1358_AU12-33_AU25-33_AU6-33_AU9-33	1	1	3	11	34	test_extra	id-1358_AU12-33_AU25-33_AU6-33_AU9-33	emotion	Bang	0.23626783270677	0.8781420539044119
id-1356_AU13-100_AU15-33_AU16Open-100	1	1	3	11	35	test_extra	id-1356_AU13-100_AU15-33_AU16Open-100	emotion	Verdrietig	0.07862128305825089	3.64501646773897
id-1355_AU12-100_AU26-33_AU5-66	1	1	3	11	36	test_extra	id-1355_AU12-100_AU26-33_AU5-66	emotion	Blij	0.245345294924686	0.7114268387767879
id-1260_AU12-33	1	1	3	12	1	test_extra	id-1260_AU12-33	valence	0.14130723902279332		4.119064875132608
id-1260_AU12-33	1	1	3	12	1	test_extra	id-1260_AU12-33	arousal	-0.4347915046855179		4.119064875132608
id-1323_AU25-33_AU26-66	1	1	3	12	2	train	id-1323_AU25-33_AU26-66	valence	0.0054348938085689745		1.3436856764328695
id-1323_AU25-33_AU26-66	1	1	3	12	2	train	id-1323_AU25-33_AU26-66	arousal	-0.5380544870483285		1.3436856764328695
id-1315_AU15-100_AU2-33_AU25-33_AU26-66	1	1	3	12	3	train	id-1315_AU15-100_AU2-33_AU25-33_AU26-66	valence	0.013587234521422437		3.6530129275743084
id-1315_AU15-100_AU2-33_AU25-33_AU26-66	1	1	3	12	3	train	id-1315_AU15-100_AU2-33_AU25-33_AU26-66	arousal	0.30163660637557804		3.6530129275743084
id-1293_AU22-66_AU25-100_AU5-33_AU9-33	1	1	3	12	4	test	id-1293_AU22-66_AU25-100_AU5-33_AU9-33	valence	-0.16032936735278475		0.6935663377753372
id-1293_AU22-66_AU25-100_AU5-33_AU9-33	1	1	3	12	4	test	id-1293_AU22-66_AU25-100_AU5-33_AU9-33	arousal	-0.14674213283136228		0.6935663377753372
id-1296_AU16Open-100_AU17-100_AU27i-33	1	1	3	12	5	test_extra	id-1296_AU16Open-100_AU17-100_AU27i-33	valence	0.5869685313254491		0.8770795217760678
id-1296_AU16Open-100_AU17-100_AU27i-33	1	1	3	12	5	test_extra	id-1296_AU16Open-100_AU17-100_AU27i-33	arousal	0.42392171706838		0.8770795217760678
id-1310_AU12-33_AU14-33_AU22-100_AU6-100	1	1	3	12	6	test	id-1310_AU12-33_AU14-33_AU22-100_AU6-100	valence	-0.1684817080656382		2.5273509957169162
id-1310_AU12-33_AU14-33_AU22-100_AU6-100	1	1	3	12	6	test	id-1310_AU12-33_AU14-33_AU22-100_AU6-100	arousal	0.4375089515898024		2.5273509957169162
id-1295_AU1-33_AU14-33_AU6-66	1	1	3	12	7	train	id-1295_AU1-33_AU14-33_AU6-66	valence	0.0		3.1189628478996383
id-1295_AU1-33_AU14-33_AU6-66	1	1	3	12	7	train	id-1295_AU1-33_AU14-33_AU6-66	arousal	0.2092434116299055		3.1189628478996383
id-1294_AU13-100_AU2-66_AU6-33	1	1	3	12	8	test_extra	id-1294_AU13-100_AU2-66_AU6-33	valence	0.22283064615132792		0.7270382128208439
id-1294_AU13-100_AU2-66_AU6-33	1	1	3	12	8	test_extra	id-1294_AU13-100_AU2-66_AU6-33	arousal	-0.38044256659982817		0.7270382128208439
id-1315_AU10Open-100_AU12-66_AU43-100	1	1	3	12	9	train	id-1315_AU10Open-100_AU12-66_AU43-100	valence	-0.1277200045013709		2.9522642348365484
id-1315_AU10Open-100_AU12-66_AU43-100	1	1	3	12	9	train	id-1315_AU10Open-100_AU12-66_AU43-100	arousal	0.3967472480255351		2.9522642348365484
id-1290_AU11-33_AU5-66	1	1	3	12	10	test_extra	id-1290_AU11-33_AU5-66	valence	-0.02173957523427589		0.9936884987837402
id-1290_AU11-33_AU5-66	1	1	3	12	10	test_extra	id-1290_AU11-33_AU5-66	arousal	-0.6413174694111391		0.9936884987837402
id-1270_AU11-100_AU15-100_AU20-66_AU7-66	1	1	3	12	11	test	id-1270_AU11-100_AU15-100_AU20-66_AU7-66	valence	-0.23913532757703485		2.2444614758151147
id-1270_AU11-100_AU15-100_AU20-66_AU7-66	1	1	3	12	11	test	id-1270_AU11-100_AU15-100_AU20-66_AU7-66	arousal	-0.4320740577812335		2.2444614758151147
id-1307_AU1-100_AU13-100	1	1	3	12	12	train	id-1307_AU1-100_AU13-100	valence	0.0		1.3937837644489264
id-1307_AU1-100_AU13-100	1	1	3	12	12	train	id-1307_AU1-100_AU13-100	arousal	-0.4864229958669232		1.3937837644489264
id-1264_AU13-100_AU15-33_AU22-33	1	1	3	12	13	test_extra	id-1264_AU13-100_AU15-33_AU22-33	valence	0.3043540532798626		1.0436987467855945
id-1264_AU13-100_AU15-33_AU22-33	1	1	3	12	13	test_extra	id-1264_AU13-100_AU15-33_AU22-33	arousal	-0.19565617710848307		1.0436987467855945
id-1373_AU1-33_AU11-100_AU25-33_AU5-33	1	1	3	12	14	test_extra	id-1373_AU1-33_AU11-100_AU25-33_AU5-33	valence	0.10869787617137948		1.9439333188647647
id-1373_AU1-33_AU11-100_AU25-33_AU5-33	1	1	3	12	14	test_extra	id-1373_AU1-33_AU11-100_AU25-33_AU5-33	arousal	-0.4483787392069404		1.9439333188647647
id-1295_AU12-33_AU2-66_AU27i-66	1	1	3	12	15	test_extra	id-1295_AU12-33_AU2-66_AU27i-66	valence	0.524467252526906		1.16862626368129
id-1295_AU12-33_AU2-66_AU27i-66	1	1	3	12	15	test_extra	id-1295_AU12-33_AU2-66_AU27i-66	arousal	0.26902724352416424		1.16862626368129
id-1339_AU14-100_AU15-66_AU26-33	1	1	3	12	16	test_extra	id-1339_AU14-100_AU15-66_AU26-33	valence	0.6875140667839752		0.9604961421337066
id-1339_AU14-100_AU15-66_AU26-33	1	1	3	12	16	test_extra	id-1339_AU14-100_AU15-66_AU26-33	arousal	0.6847966198796908		0.9604961421337066
id-1318_AU1-33_AU13-66_AU26-66	1	1	3	12	17	train	id-1318_AU1-33_AU13-66_AU26-66	valence	0.2472876682898883		2.0444310487582698
id-1318_AU1-33_AU13-66_AU26-66	1	1	3	12	17	train	id-1318_AU1-33_AU13-66_AU26-66	arousal	0.5190323587183371		2.0444310487582698
id-1347_AU10Open-100_AU25-100	1	1	3	12	18	train	id-1347_AU10Open-100_AU25-100	valence	-0.4945753365797766		1.3103529568725207
id-1347_AU10Open-100_AU25-100	1	1	3	12	18	train	id-1347_AU10Open-100_AU25-100	arousal	0.5108800180054835		1.3103529568725207
id-1295_AU11-33_AU12-100_AU13-100_AU20-33_AU9-66	1	1	3	12	19	test	id-1295_AU11-33_AU12-100_AU13-100_AU20-33_AU9-66	valence	-0.7228408765396734		0.9689094647164892
id-1295_AU11-33_AU12-100_AU13-100_AU20-33_AU9-66	1	1	3	12	19	test	id-1295_AU11-33_AU12-100_AU13-100_AU20-33_AU9-66	arousal	0.6549047039325613		0.9689094647164892
id-1280_AU10Open-100_AU14-33_AU24-100_AU27i-33	1	1	3	12	20	test_extra	id-1280_AU10Open-100_AU14-33_AU24-100_AU27i-33	valence	0.5353370401440439		1.1604323902056422
id-1280_AU10Open-100_AU14-33_AU24-100_AU27i-33	1	1	3	12	20	test_extra	id-1280_AU10Open-100_AU14-33_AU24-100_AU27i-33	arousal	0.5516417215697509		1.1604323902056422
id-1377_AU24-100_AU26-33_AU43-66	1	1	3	12	21	test_extra	id-1377_AU24-100_AU26-33_AU43-66	valence	0.3423983099398454		4.469226866003737
id-1377_AU24-100_AU26-33_AU43-66	1	1	3	12	21	test_extra	id-1377_AU24-100_AU26-33_AU43-66	arousal	0.3777251196955437		4.469226866003737
id-1264_AU10Open-66_AU25-66_AU43-33	1	1	3	12	22	test_extra	id-1264_AU10Open-66_AU25-66_AU43-33	valence	0.1820689425870606		4.752606297736747
id-1264_AU10Open-66_AU25-66_AU43-33	1	1	3	12	22	test_extra	id-1264_AU10Open-66_AU25-66_AU43-33	arousal	0.3505506506526989		4.752606297736747
id-1358_AU2-33_AU4-33_AU9-100	1	1	3	12	23	test_extra	id-1358_AU2-33_AU4-33_AU9-100	valence	-0.1875038363956296		1.193815519670352
id-1358_AU2-33_AU4-33_AU9-100	1	1	3	12	23	test_extra	id-1358_AU2-33_AU4-33_AU9-100	arousal	-0.2527225620984573		1.193815519670352
id-1291_AU14-100_AU15-66	1	1	3	12	24	test_extra	id-1291_AU14-100_AU15-66	valence	0.3179412878012849		4.7361119957158735
id-1291_AU14-100_AU15-66	1	1	3	12	24	test_extra	id-1291_AU14-100_AU15-66	arousal	-0.0027174469042844872		4.7361119957158735
id-1366_AU16Open-100_AU43-100	1	1	3	12	25	test_extra	id-1366_AU16Open-100_AU43-100	valence	0.1277200045013709		1.8355311951281688
id-1366_AU16Open-100_AU43-100	1	1	3	12	25	test_extra	id-1366_AU16Open-100_AU43-100	arousal	-0.0027174469042844872		1.8355311951281688
id-1264_AU13-100_AU16Open-100_AU20-66_AU26-33_AU7-66	1	1	3	12	26	test_extra	id-1264_AU13-100_AU16Open-100_AU20-66_AU26-33_AU7-66	valence	0.4945753365797766		1.2853900926729689
id-1264_AU13-100_AU16Open-100_AU20-66_AU26-33_AU7-66	1	1	3	12	26	test_extra	id-1264_AU13-100_AU16Open-100_AU20-66_AU26-33_AU7-66	arousal	0.50272767729263		1.2853900926729689
id-1344_AU13-100_AU16Open-66_AU43-100	1	1	3	12	27	test_extra	id-1344_AU13-100_AU16Open-66_AU43-100	valence	-0.13315489830993985		5.577769352648829
id-1344_AU13-100_AU16Open-66_AU43-100	1	1	3	12	27	test_extra	id-1344_AU13-100_AU16Open-66_AU43-100	arousal	0.33968086303556083		5.577769352648829
id-1355_AU26-33_AU7-100	1	1	3	12	28	test_extra	id-1355_AU26-33_AU7-100	valence	0.0027174469042844872		3.568963617632108
id-1355_AU26-33_AU7-100	1	1	3	12	28	test_extra	id-1355_AU26-33_AU7-100	arousal	0.5978383189425871		3.568963617632108
id-1344_AU2-33_AU20-100_AU24-100	1	1	3	12	29	test	id-1344_AU2-33_AU20-100_AU24-100	valence	-0.1250025575970864		1.8688273901461798
id-1344_AU2-33_AU20-100_AU24-100	1	1	3	12	29	test	id-1344_AU2-33_AU20-100_AU24-100	arousal	0.21196085853419		1.8688273901461798
id-1310_AU1-100_AU24-100_AU5-33	1	1	3	12	30	test_extra	id-1310_AU1-100_AU24-100_AU5-33	valence	-0.3369634161312764		1.2353001547617168
id-1310_AU1-100_AU24-100_AU5-33	1	1	3	12	30	test_extra	id-1310_AU1-100_AU24-100_AU5-33	arousal	0.105980429267095		1.2353001547617168
id-1366_AU14-33_AU2-100_AU26-100_AU27i-100	1	1	3	12	31	test	id-1366_AU14-33_AU2-100_AU26-100_AU27i-100	valence	0.6739268322625528		1.027145281043886
id-1366_AU14-33_AU2-100_AU26-100_AU27i-100	1	1	3	12	31	test	id-1366_AU14-33_AU2-100_AU26-100_AU27i-100	arousal	0.6114255534640095		1.027145281043886
id-1354_AU12-66_AU15-66_AU2-66_AU5-66_AU9-66	1	1	3	12	32	train	id-1354_AU12-66_AU15-66_AU2-66_AU5-66_AU9-66	valence	-0.5489242746654663		1.7939723035296993
id-1354_AU12-66_AU15-66_AU2-66_AU5-66_AU9-66	1	1	3	12	32	train	id-1354_AU12-66_AU15-66_AU2-66_AU5-66_AU9-66	arousal	0.6331651286982856		1.7939723035296993
id-1335_AU1-66	1	1	3	12	33	test_extra	id-1335_AU1-66	valence	0.2608749028113107		4.269096826560599
id-1335_AU1-66	1	1	3	12	33	test_extra	id-1335_AU1-66	arousal	-0.418486823259811		4.269096826560599
id-1377_AU2-33_AU6-33	1	1	3	12	34	test_extra	id-1377_AU2-33_AU6-33	valence	0.0815234071285346		1.5603945374987234
id-1377_AU2-33_AU6-33	1	1	3	12	34	test_extra	id-1377_AU2-33_AU6-33	arousal	-0.8125166243810616		1.5603945374987234
id-1279_AU22-33_AU26-33_AU4-33	1	1	3	12	35	test	id-1279_AU22-33_AU26-33_AU4-33	valence	0.5733812968040267		0.8520110080744416
id-1279_AU22-33_AU26-33_AU4-33	1	1	3	12	35	test	id-1279_AU22-33_AU26-33_AU4-33	arousal	-0.5434893808568974		0.8520110080744416
id-1285_AU12-33_AU17-100_AU26-100_AU43-66	1	1	3	12	36	test_extra	id-1285_AU12-33_AU17-100_AU26-100_AU43-66	valence			
id-1285_AU12-33_AU17-100_AU26-100_AU43-66	1	1	3	12	36	test_extra	id-1285_AU12-33_AU17-100_AU26-100_AU43-66	arousal			
id-1347_AU22-100_AU6-100	1	1	4	13	1	test_extra	id-1347_AU22-100_AU6-100	valence	-0.23098298686418134		3.535761299741353
id-1347_AU22-100_AU6-100	1	1	4	13	1	test_extra	id-1347_AU22-100_AU6-100	arousal	-0.6630570446454148		3.535761299741353
id-1309_AU27i-33_AU4-100_AU43-66	1	1	4	13	2	test_extra	id-1309_AU27i-33_AU4-100_AU43-66	valence	-0.6087081065597252		1.8938270807429944
id-1309_AU27i-33_AU4-100_AU43-66	1	1	4	13	2	test_extra	id-1309_AU27i-33_AU4-100_AU43-66	arousal	0.5951208720383027		1.8938270807429944
id-1363_AU25-33_AU27i-66	1	1	4	13	3	train	id-1363_AU25-33_AU27i-66	valence	0.29348426566272456		2.1107964432940207
id-1363_AU25-33_AU27i-66	1	1	4	13	3	train	id-1363_AU25-33_AU27i-66	arousal	0.5108800180054835		2.1107964432940207
id-1293_AU6-33_AU7-66	1	1	4	13	4	test_extra	id-1293_AU6-33_AU7-66	valence	0.1875038363956296		6.0860095609768905
id-1293_AU6-33_AU7-66	1	1	4	13	4	test_extra	id-1293_AU6-33_AU7-66	arousal	0.3885949073126817		6.0860095609768905
id-1341_AU16Open-33_AU27i-100	1	1	4	13	5	train	id-1341_AU16Open-33_AU27i-100	valence	0.5299021463354749		1.0771129673885298
id-1341_AU16Open-33_AU27i-100	1	1	4	13	5	train	id-1341_AU16Open-33_AU27i-100	arousal	0.32337618160985393		1.0771129673885298
id-1264_AU10Open-33_AU25-66_AU4-66	1	1	4	13	6	test	id-1264_AU10Open-33_AU25-66_AU4-66	valence	-0.14945957973564675		0.8272521983399201
id-1264_AU10Open-33_AU25-66_AU4-66	1	1	4	13	6	test	id-1264_AU10Open-33_AU25-66_AU4-66	arousal	0.14945957973564675		0.8272521983399201
id-1370_AU10Open-100_AU2-33_AU27i-66_AU5-66	1	1	4	13	7	test	id-1370_AU10Open-100_AU2-33_AU27i-66_AU5-66	valence	0.30163660637557804		1.1186609921824129
id-1370_AU10Open-100_AU2-33_AU27i-66_AU5-66	1	1	4	13	7	test	id-1370_AU10Open-100_AU2-33_AU27i-66_AU5-66	arousal	0.5652289560911733		1.1186609921824129
id-1355_AU12-66_AU13-100_AU27i-100_AU5-100	1	1	4	13	8	test_extra	id-1355_AU12-66_AU13-100_AU27i-100_AU5-100	valence	0.7038187482096819		0.90195152740489
id-1355_AU12-66_AU13-100_AU27i-100_AU5-100	1	1	4	13	8	test_extra	id-1355_AU12-66_AU13-100_AU27i-100_AU5-100	arousal	0.6467523632197079		0.90195152740489
id-1290_AU24-33_AU25-66_AU4-66	1	1	4	13	9	test_extra	id-1290_AU24-33_AU25-66_AU4-66	valence	-0.2282655399598969		1.1020559091120958
id-1290_AU24-33_AU25-66_AU4-66	1	1	4	13	9	test_extra	id-1290_AU24-33_AU25-66_AU4-66	arousal	0.11956766378851742		1.1020559091120958
id-1285_AU16Open-100	1	1	4	13	10	train	id-1285_AU16Open-100	valence	-0.11413276997994845		2.485659589459829
id-1285_AU16Open-100	1	1	4	13	10	train	id-1285_AU16Open-100	arousal	-0.4728357613455008		2.485659589459829
id-1367_AU14-66_AU2-100_AU20-66_AU9-33	1	1	4	13	11	test_extra	id-1367_AU14-66_AU2-100_AU20-66_AU9-33	valence	-0.5271846994311905		0.752097368995237
id-1367_AU14-66_AU2-100_AU20-66_AU9-33	1	1	4	13	11	test_extra	id-1367_AU14-66_AU2-100_AU20-66_AU9-33	arousal	0.5326195932397594		0.752097368995237
id-1373_AU1-33_AU15-100_AU4-66_AU7-66_AU9-66	1	1	4	13	12	train	id-1373_AU1-33_AU15-100_AU4-66_AU7-66_AU9-66	valence	-0.4103344825469576		4.019047699541261
id-1373_AU1-33_AU15-100_AU4-66_AU7-66_AU9-66	1	1	4	13	12	train	id-1373_AU1-33_AU15-100_AU4-66_AU7-66_AU9-66	arousal	0.2744621373327332		4.019047699541261
id-1318_AU12-100_AU14-100_AU26-33_AU6-66	1	1	4	13	13	test_extra	id-1318_AU12-100_AU14-100_AU26-33_AU6-66	valence	-0.2527225620984573		1.793751647001045
id-1318_AU12-100_AU14-100_AU26-33_AU6-66	1	1	4	13	13	test_extra	id-1318_AU12-100_AU14-100_AU26-33_AU6-66	arousal	0.6168604472725784		1.793751647001045
id-1373_AU11-33_AU13-100_AU16Open-66_AU43-33	1	1	4	13	14	test	id-1373_AU11-33_AU13-100_AU16Open-66_AU43-33	valence	-0.0054348938085689745		3.252502610297596
id-1373_AU11-33_AU13-100_AU16Open-66_AU43-33	1	1	4	13	14	test	id-1373_AU11-33_AU13-100_AU16Open-66_AU43-33	arousal	0.2201131992470434		3.252502610297596
id-1294_AU11-33_AU14-33_AU17-33_AU4-100	1	1	4	13	15	train	id-1294_AU11-33_AU14-33_AU17-33_AU4-100	valence	0.6793617260711217		2.0021510238493647
id-1294_AU11-33_AU14-33_AU17-33_AU4-100	1	1	4	13	15	train	id-1294_AU11-33_AU14-33_AU17-33_AU4-100	arousal	0.33968086303556083		2.0021510238493647
id-1296_AU1-66_AU11-33	1	1	4	13	16	test_extra	id-1296_AU1-66_AU11-33	valence	0.0		1.3769725139227376
id-1296_AU1-66_AU11-33	1	1	4	13	16	test_extra	id-1296_AU1-66_AU11-33	arousal	-0.6739268322625528		1.3769725139227376
id-1361_AU13-66_AU6-33	1	1	4	13	17	test_extra	id-1361_AU13-66_AU6-33	valence	-0.0815234071285346		1.6437184881488065
id-1361_AU13-66_AU6-33	1	1	4	13	17	test_extra	id-1361_AU13-66_AU6-33	arousal	-0.6304476817940009		1.6437184881488065
id-1354_AU14-100_AU2-100_AU20-100_AU4-66	1	1	4	13	18	train	id-1354_AU14-100_AU2-100_AU20-100_AU4-66	valence	-0.4701183144412162		1.302010872239407
id-1354_AU14-100_AU2-100_AU20-100_AU4-66	1	1	4	13	18	train	id-1354_AU14-100_AU2-100_AU20-100_AU4-66	arousal	0.19837362401276756		1.302010872239407
id-1335_AU20-33_AU22-100_AU4-100_AU7-66	1	1	4	13	19	test_extra	id-1335_AU20-33_AU22-100_AU4-100_AU7-66	valence	-0.4483787392069404		0.8769774945430981
id-1335_AU20-33_AU22-100_AU4-100_AU7-66	1	1	4	13	19	test_extra	id-1335_AU20-33_AU22-100_AU4-100_AU7-66	arousal	-0.19293873020419855		0.8769774945430981
id-1279_AU12-100_AU15-100_AU26-100	1	1	4	13	20	train	id-1279_AU12-100_AU15-100_AU26-100	valence	0.720123429635389		1.1270012656805193
id-1279_AU12-100_AU15-100_AU26-100	1	1	4	13	20	train	id-1279_AU12-100_AU15-100_AU26-100	arousal	0.5815336375168803		1.1270012656805193
id-1302_AU15-66_AU24-100_AU25-100_AU43-33	1	1	4	13	21	test	id-1302_AU15-66_AU24-100_AU25-100_AU43-33	valence	-0.23370043376846586		1.5354980815554882
id-1302_AU15-66_AU24-100_AU25-100_AU43-33	1	1	4	13	21	test	id-1302_AU15-66_AU24-100_AU25-100_AU43-33	arousal	-0.19837362401276756		1.5354980815554882
id-1295_AU24-100_AU27i-33	1	1	4	13	22	train	id-1295_AU24-100_AU27i-33	valence	-0.11956766378851742		2.3272143154463265
id-1295_AU24-100_AU27i-33	1	1	4	13	22	train	id-1295_AU24-100_AU27i-33	arousal	0.3695727789826902		2.3272143154463265
id-1285_AU27i-100_AU4-33_AU6-100	1	1	4	13	23	test_extra	id-1285_AU27i-100_AU4-33_AU6-100	valence	-0.09782808855424154		0.7352812887802429
id-1285_AU27i-100_AU4-33_AU6-100	1	1	4	13	23	test_extra	id-1285_AU27i-100_AU4-33_AU6-100	arousal	0.6413174694111391		0.7352812887802429
id-1356_AU20-33_AU27i-66_AU4-66_AU43-33	1	1	4	13	24	test_extra	id-1356_AU20-33_AU27i-66_AU4-66_AU43-33	valence	0.21467830543847446		4.877515099578886
id-1356_AU20-33_AU27i-66_AU4-66_AU43-33	1	1	4	13	24	test_extra	id-1356_AU20-33_AU27i-66_AU4-66_AU43-33	arousal	0.4592485268240783		4.877515099578886
id-1347_AU17-66_AU26-100_AU27i-100_AU9-33	1	1	4	13	25	test_extra	id-1347_AU17-66_AU26-100_AU27i-100_AU9-33	valence	0.15761192044850025		3.5439968293085258
id-1347_AU17-66_AU26-100_AU27i-100_AU9-33	1	1	4	13	25	test_extra	id-1347_AU17-66_AU26-100_AU27i-100_AU9-33	arousal	0.6603395977411303		3.5439968293085258
id-1347_AU11-100_AU16Open-100_AU22-100_AU24-33	1	1	4	13	26	test_extra	id-1347_AU11-100_AU16Open-100_AU22-100_AU24-33	valence	-0.4320740577812335		2.0939876076154182
id-1347_AU11-100_AU16Open-100_AU22-100_AU24-33	1	1	4	13	26	test_extra	id-1347_AU11-100_AU16Open-100_AU22-100_AU24-33	arousal	0.1250025575970864		2.0939876076154182
id-1344_AU16Open-33	1	1	4	13	27	test_extra	id-1344_AU16Open-33	valence	-0.11413276997994845		0.7602667921582906
id-1344_AU16Open-33	1	1	4	13	27	test_extra	id-1344_AU16Open-33	arousal	-0.6847966198796908		0.7602667921582906
id-1310_AU14-100_AU15-66_AU2-66_AU24-100_AU43-66	1	1	4	13	28	test_extra	id-1310_AU14-100_AU15-66_AU2-66_AU24-100_AU43-66	valence	-0.3967472480255351		1.077057727792635
id-1310_AU14-100_AU15-66_AU2-66_AU24-100_AU43-66	1	1	4	13	28	test_extra	id-1310_AU14-100_AU15-66_AU2-66_AU24-100_AU43-66	arousal	-0.19837362401276756		1.077057727792635
id-1315_AU14-66_AU22-33_AU24-66_AU6-100	1	1	4	13	29	train	id-1315_AU14-66_AU22-33_AU24-66_AU6-100	valence	-0.2500051151941728		7.411248230748242
id-1315_AU14-66_AU22-33_AU24-66_AU6-100	1	1	4	13	29	train	id-1315_AU14-66_AU22-33_AU24-66_AU6-100	arousal	0.14945957973564675		7.411248230748242
id-1280_AU11-33_AU17-66_AU2-66_AU26-66_AU9-66	1	1	4	13	30	test	id-1280_AU11-33_AU17-66_AU2-66_AU26-66_AU9-66	valence	-0.41305192945124203		0.701971510254225
id-1280_AU11-33_AU17-66_AU2-66_AU26-66_AU9-66	1	1	4	13	30	test	id-1280_AU11-33_AU17-66_AU2-66_AU26-66_AU9-66	arousal	0.17391660187420716		0.701971510254225
id-1366_AU15-100_AU25-66_AU27i-100_AU43-33	1	1	4	13	31	test_extra	id-1366_AU15-100_AU25-66_AU27i-100_AU43-33	valence	0.30163660637557804		1.5520521510097751
id-1366_AU15-100_AU25-66_AU27i-100_AU43-33	1	1	4	13	31	test_extra	id-1366_AU15-100_AU25-66_AU27i-100_AU43-33	arousal	0.21196085853419		1.5520521510097751
id-1380_AU5-66	1	1	4	13	32	train	id-1380_AU5-66	valence	0.0842408540328191		1.5103797616593506
id-1380_AU5-66	1	1	4	13	32	train	id-1380_AU5-66	arousal	-0.7228408765396734		1.5103797616593506
id-1291_AU4-100_AU43-33_AU7-66	1	1	4	13	33	test	id-1291_AU4-100_AU43-33_AU7-66	valence	-0.10869787617137948		1.118660992180594
id-1291_AU4-100_AU43-33_AU7-66	1	1	4	13	33	test	id-1291_AU4-100_AU43-33_AU7-66	arousal	-0.5869685313254491		1.118660992180594
id-1347_AU20-100_AU5-100	1	1	4	13	34	train	id-1347_AU20-100_AU5-100	valence	-0.2907668187584401		4.035313194928676
id-1347_AU20-100_AU5-100	1	1	4	13	34	train	id-1347_AU20-100_AU5-100	arousal	-0.1684817080656382		4.035313194928676
id-1363_AU1-33_AU15-100_AU2-66_AU22-66_AU5-100	1	1	4	13	35	test	id-1363_AU1-33_AU15-100_AU2-66_AU22-66_AU5-100	valence	0.3722902258869748		0.7768573861521872
id-1363_AU1-33_AU15-100_AU2-66_AU22-66_AU5-100	1	1	4	13	35	test	id-1363_AU1-33_AU15-100_AU2-66_AU22-66_AU5-100	arousal	-0.2771795842370177		0.7768573861521872
id-1370_AU1-33_AU26-66_AU7-100	1	1	4	13	36	test_extra	id-1370_AU1-33_AU26-66_AU7-100	valence	0.5924034251340181		0.9105565283698523
id-1370_AU1-33_AU26-66_AU7-100	1	1	4	13	36	test_extra	id-1370_AU1-33_AU26-66_AU7-100	arousal	0.17663404877849165		0.9105565283698523
id-1295_AU15-66_AU17-33_AU20-33_AU25-66	1	1	4	14	1	test_extra	id-1295_AU15-66_AU17-33_AU20-33_AU25-66	valence	-0.28533192494987114		1.243835728910199
id-1295_AU15-66_AU17-33_AU20-33_AU25-66	1	1	4	14	1	test_extra	id-1295_AU15-66_AU17-33_AU20-33_AU25-66	arousal	-0.14945957973564675		1.243835728910199
id-1264_AU14-33_AU20-100_AU22-66_AU6-100	1	1	4	14	2	train	id-1264_AU14-33_AU20-100_AU22-66_AU6-100	valence	0.3288110754184229		0.5936161741537944
id-1264_AU14-33_AU20-100_AU22-66_AU6-100	1	1	4	14	2	train	id-1264_AU14-33_AU20-100_AU22-66_AU6-100	arousal	0.23370043376846586		0.5936161741537944
id-1296_AU1-66_AU17-100_AU27i-33_AU4-66_AU5-100	1	1	4	14	3	test	id-1296_AU1-66_AU17-100_AU27i-33_AU4-66_AU5-100	valence	-0.2554400090027418		0.8687292870381498
id-1296_AU1-66_AU17-100_AU27i-33_AU4-66_AU5-100	1	1	4	14	3	test	id-1296_AU1-66_AU17-100_AU27i-33_AU4-66_AU5-100	arousal	0.1657642611613537		0.8687292870381498
id-1297_AU20-33_AU22-33_AU26-66	1	1	4	14	4	train	id-1297_AU20-33_AU22-33_AU26-66	valence	-0.3179412878012849		0.5686080315954314
id-1297_AU20-33_AU22-33_AU26-66	1	1	4	14	4	train	id-1297_AU20-33_AU22-33_AU26-66	arousal	-0.13587234521422434		0.5686080315954314
id-1347_AU11-33_AU4-100	1	1	4	14	5	test_extra	id-1347_AU11-33_AU4-100	valence	-0.0815234071285346		0.6849326605170063
id-1347_AU11-33_AU4-100	1	1	4	14	5	test_extra	id-1347_AU11-33_AU4-100	arousal	-0.5217498056226214		0.6849326605170063
id-1260_AU14-100_AU17-33_AU2-66_AU27i-100	1	1	4	14	6	train	id-1260_AU14-100_AU17-33_AU2-66_AU27i-100	valence	0.6494698101239924		2.0938427168712224
id-1260_AU14-100_AU17-33_AU2-66_AU27i-100	1	1	4	14	6	train	id-1260_AU14-100_AU17-33_AU2-66_AU27i-100	arousal	0.3994646949298196		2.0938427168712224
id-1345_AU17-100_AU20-33	1	1	4	14	7	test_extra	id-1345_AU17-100_AU20-33	valence	-0.1032629823628105		0.7019292504537589
