	rep	session	run	block	trial	trial_type	rating_type	rating	rating_RT
id-1361_gender-F_age-19	1	4	1	1	1	id-1361_gender-F_age-19	attractiveness	-0.12250000000000005	2.36
id-1347_gender-F_age-27	1	4	1	1	2	id-1347_gender-F_age-27	attractiveness	-0.43500000000000005	1.2429999999999999
id-1290_gender-F_age-23	1	4	1	1	3	id-1290_gender-F_age-23	attractiveness	0.13250000000000006	0.785
id-1280_gender-M_age-18	1	4	1	1	4	id-1280_gender-M_age-18	attractiveness	-0.22999999999999998	0.6509999999999999
id-1297_gender-F_age-22	1	4	1	1	5	id-1297_gender-F_age-22	attractiveness	0.30499999999999994	0.785
id-1335_gender-M_age-23	1	4	1	1	6	id-1335_gender-M_age-23	attractiveness	-0.13249999999999995	0.7929999999999999
id-1294_gender-F_age-26	1	4	1	1	7	id-1294_gender-F_age-26	attractiveness	0.25750000000000006	0.818
id-1366_gender-F_age-24	1	4	1	1	8	id-1366_gender-F_age-24	attractiveness	-0.18000000000000005	0.6509999999999999
id-1362_gender-F_age-24	1	4	1	1	9	id-1362_gender-F_age-24	attractiveness	-0.08750000000000002	2.568
id-1291_gender-F_age-24	1	4	1	1	10	id-1291_gender-F_age-24	attractiveness	0.1399999999999999	0.534
id-1380_gender-F_age-21	1	4	1	1	11	id-1380_gender-F_age-21	attractiveness	-0.21499999999999997	1.035
id-1302_gender-F_age-30	1	4	1	1	12	id-1302_gender-F_age-30	attractiveness	-0.26	0.7759999999999999
id-1295_gender-F_age-26	1	4	1	1	13	id-1295_gender-F_age-26	attractiveness	-0.08250000000000002	1.835
id-1341_gender-M_age-19	1	4	1	1	14	id-1341_gender-M_age-19	attractiveness	0.14500000000000002	0.5760000000000001
id-1355_gender-F_age-19	1	4	1	1	15	id-1355_gender-F_age-19	attractiveness	-0.32499999999999996	0.634
id-1344_gender-M_age-25	1	4	1	1	16	id-1344_gender-M_age-25	attractiveness	-0.14	0.5589999999999999
id-1367_gender-M_age-20	1	4	1	1	17	id-1367_gender-M_age-20	attractiveness	0.36749999999999994	0.8759999999999999
id-1273_gender-F_age-20	1	4	1	1	18	id-1273_gender-F_age-20	attractiveness	0.30499999999999994	1.043
id-1264_gender-F_age-26	1	4	1	1	19	id-1264_gender-F_age-26	attractiveness	-0.2849999999999999	0.8759999999999999
id-1345_gender-M_age-18	1	4	1	1	20	id-1345_gender-M_age-18	attractiveness	0.1100000000000001	0.5760000000000001
id-1354_gender-F_age-23	1	4	1	1	21	id-1354_gender-F_age-23	attractiveness	0.07000000000000006	1.193
id-1315_gender-M_age-16	1	4	1	1	22	id-1315_gender-M_age-16	attractiveness	0.13250000000000006	0.6509999999999999
id-1342_gender-M_age-19	1	4	1	1	23	id-1342_gender-M_age-19	attractiveness	-0.2775000000000001	0.5589999999999999
id-1306_gender-F_age-21	1	4	1	1	24	id-1306_gender-F_age-21	attractiveness	0.15250000000000008	0.659
id-1376_gender-F_age-19	1	4	1	1	25	id-1376_gender-F_age-19	attractiveness	0.16749999999999998	0.701
id-1310_gender-F_age-28	1	4	1	1	26	id-1310_gender-F_age-28	attractiveness	-0.365	0.884
id-1377_gender-M_age-20	1	4	1	1	27	id-1377_gender-M_age-20	attractiveness	-0.13749999999999996	0.7090000000000001
id-1270_gender-F_age-30	1	4	1	1	28	id-1270_gender-F_age-30	attractiveness	-0.365	0.8759999999999999
id-1309_gender-M_age-22	1	4	1	1	29	id-1309_gender-M_age-22	attractiveness	-0.53	0.868
id-1311_gender-F_age-22	1	4	1	1	30	id-1311_gender-F_age-22	attractiveness	0.007500000000000062	1.0090000000000001
id-1373_gender-F_age-30	1	4	1	1	31	id-1373_gender-F_age-30	attractiveness	-0.21499999999999997	0.568
id-1296_gender-F_age-23	1	4	1	1	32	id-1296_gender-F_age-23	attractiveness	-0.31499999999999995	0.851
id-1360_gender-F_age-20	1	4	1	1	33	id-1360_gender-F_age-20	attractiveness	-0.4099999999999999	1.3430000000000002
id-1363_gender-M_age-19	1	4	1	1	34	id-1363_gender-M_age-19	attractiveness	0.08250000000000002	1.01
id-1279_gender-F_age-19	1	4	1	1	35	id-1279_gender-F_age-19	attractiveness	-0.14249999999999996	0.843
id-1370_gender-M_age-19	1	4	1	1	36	id-1370_gender-M_age-19	attractiveness	-0.1775	1.176
id-1289_gender-F_age-20	1	4	1	1	37	id-1289_gender-F_age-20	attractiveness	-0.13249999999999995	0.9590000000000001
id-1323_gender-F_age-23	1	4	1	1	38	id-1323_gender-F_age-23	attractiveness	-0.31000000000000005	0.66
id-1378_gender-F_age-19	1	4	1	1	39	id-1378_gender-F_age-19	attractiveness	0.15749999999999997	1.06
id-1266_gender-M_age-21	1	4	1	1	40	id-1266_gender-M_age-21	attractiveness	-0.21250000000000002	0.626
id-1339_gender-F_age-30	1	4	1	1	41	id-1339_gender-F_age-30	attractiveness	-0.5025	0.893
id-1260_gender-F_age-22	1	4	1	1	42	id-1260_gender-F_age-22	attractiveness	-0.10499999999999998	0.976
id-1307_gender-F_age-22	1	4	1	1	43	id-1307_gender-F_age-22	attractiveness	-0.43999999999999995	0.6679999999999999
id-1285_gender-F_age-19	1	4	1	1	44	id-1285_gender-F_age-19	attractiveness	-0.4125	0.9259999999999999
id-1269_gender-F_age-23	1	4	1	1	45	id-1269_gender-F_age-23	attractiveness	-0.09250000000000003	1.035
id-1293_gender-F_age-31	1	4	1	1	46	id-1293_gender-F_age-31	attractiveness	-0.3025	0.785
id-1358_gender-F_age-32	1	4	1	1	47	id-1358_gender-F_age-32	attractiveness	-0.12250000000000005	0.9009999999999999
id-1318_gender-M_age-35	1	4	1	1	48	id-1318_gender-M_age-35	attractiveness	-0.47	0.851
id-1274_gender-F_age-33	1	4	1	1	49	id-1274_gender-F_age-33	attractiveness	-0.37250000000000005	0.726
id-1356_gender-F_age-20	1	4	1	1	50	id-1356_gender-F_age-20	attractiveness	-0.08750000000000002	0.6679999999999999
id-1366_gender-F_age-24	1	4	1	2	1	id-1366_gender-F_age-24	trustworthiness	-0.16749999999999998	1.034
id-1342_gender-M_age-19	1	4	1	2	2	id-1342_gender-M_age-19	trustworthiness	-0.1775	0.943
id-1280_gender-M_age-18	1	4	1	2	3	id-1280_gender-M_age-18	trustworthiness	-0.4375	0.76
id-1285_gender-F_age-19	1	4	1	2	4	id-1285_gender-F_age-19	trustworthiness	0.08749999999999991	0.8340000000000001
id-1297_gender-F_age-22	1	4	1	2	5	id-1297_gender-F_age-22	trustworthiness	-0.20999999999999996	0.5589999999999999
id-1318_gender-M_age-35	1	4	1	2	6	id-1318_gender-M_age-35	trustworthiness	0.15749999999999997	0.718
id-1309_gender-M_age-22	1	4	1	2	7	id-1309_gender-M_age-22	trustworthiness	-0.1825	0.9179999999999999
id-1362_gender-F_age-24	1	4	1	2	8	id-1362_gender-F_age-24	trustworthiness	-0.18500000000000005	1.16
id-1302_gender-F_age-30	1	4	1	2	9	id-1302_gender-F_age-30	trustworthiness	0.11749999999999994	1.7009999999999998
id-1347_gender-F_age-27	1	4	1	2	10	id-1347_gender-F_age-27	trustworthiness	0.11749999999999994	0.534
id-1307_gender-F_age-22	1	4	1	2	11	id-1307_gender-F_age-22	trustworthiness	-0.14249999999999996	0.934
id-1354_gender-F_age-23	1	4	1	2	12	id-1354_gender-F_age-23	trustworthiness	0.1825000000000001	1.051
id-1323_gender-F_age-23	1	4	1	2	13	id-1323_gender-F_age-23	trustworthiness	0.1499999999999999	0.51
id-1341_gender-M_age-19	1	4	1	2	14	id-1341_gender-M_age-19	trustworthiness	0.1625000000000001	0.626
id-1361_gender-F_age-19	1	4	1	2	15	id-1361_gender-F_age-19	trustworthiness	0.1200000000000001	0.534
id-1358_gender-F_age-32	1	4	1	2	16	id-1358_gender-F_age-32	trustworthiness	-0.12250000000000005	0.5429999999999999
id-1311_gender-F_age-22	1	4	1	2	17	id-1311_gender-F_age-22	trustworthiness	0.24	0.634
id-1378_gender-F_age-19	1	4	1	2	18	id-1378_gender-F_age-19	trustworthiness	0.07250000000000001	2.376
id-1363_gender-M_age-19	1	4	1	2	19	id-1363_gender-M_age-19	trustworthiness	0.11749999999999994	0.5429999999999999
id-1345_gender-M_age-18	1	4	1	2	20	id-1345_gender-M_age-18	trustworthiness	0.26249999999999996	0.6679999999999999
id-1294_gender-F_age-26	1	4	1	2	21	id-1294_gender-F_age-26	trustworthiness	-0.12250000000000005	0.659
id-1270_gender-F_age-30	1	4	1	2	22	id-1270_gender-F_age-30	trustworthiness	0.13749999999999996	1.835
id-1296_gender-F_age-23	1	4	1	2	23	id-1296_gender-F_age-23	trustworthiness	-0.1825	1.018
id-1376_gender-F_age-19	1	4	1	2	24	id-1376_gender-F_age-19	trustworthiness	0.10499999999999998	1.6680000000000001
id-1266_gender-M_age-21	1	4	1	2	25	id-1266_gender-M_age-21	trustworthiness	0.1924999999999999	0.8340000000000001
id-1360_gender-F_age-20	1	4	1	2	26	id-1360_gender-F_age-20	trustworthiness	-0.2825	0.534
id-1290_gender-F_age-23	1	4	1	2	27	id-1290_gender-F_age-23	trustworthiness	-0.3375	0.643
id-1306_gender-F_age-21	1	4	1	2	28	id-1306_gender-F_age-21	trustworthiness	-0.125	0.376
id-1335_gender-M_age-23	1	4	1	2	29	id-1335_gender-M_age-23	trustworthiness	-0.22499999999999998	0.726
id-1377_gender-M_age-20	1	4	1	2	30	id-1377_gender-M_age-20	trustworthiness	0.1100000000000001	2.276
id-1356_gender-F_age-20	1	4	1	2	31	id-1356_gender-F_age-20	trustworthiness	0.12749999999999995	1.276
id-1373_gender-F_age-30	1	4	1	2	32	id-1373_gender-F_age-30	trustworthiness	-0.16000000000000003	0.759
id-1291_gender-F_age-24	1	4	1	2	33	id-1291_gender-F_age-24	trustworthiness	-0.17500000000000004	0.784
id-1273_gender-F_age-20	1	4	1	2	34	id-1273_gender-F_age-20	trustworthiness	0.18500000000000005	0.5429999999999999
id-1260_gender-F_age-22	1	4	1	2	35	id-1260_gender-F_age-22	trustworthiness	0.2875000000000001	0.91
id-1269_gender-F_age-23	1	4	1	2	36	id-1269_gender-F_age-23	trustworthiness	-0.08750000000000002	1.268
id-1274_gender-F_age-33	1	4	1	2	37	id-1274_gender-F_age-33	trustworthiness	-0.22499999999999998	0.726
id-1355_gender-F_age-19	1	4	1	2	38	id-1355_gender-F_age-19	trustworthiness	-0.4225	0.718
id-1295_gender-F_age-26	1	4	1	2	39	id-1295_gender-F_age-26	trustworthiness	-0.4425	0.71
id-1293_gender-F_age-31	1	4	1	2	40	id-1293_gender-F_age-31	trustworthiness	-0.5	0.7759999999999999
id-1344_gender-M_age-25	1	4	1	2	41	id-1344_gender-M_age-25	trustworthiness	-0.3075	0.551
id-1339_gender-F_age-30	1	4	1	2	42	id-1339_gender-F_age-30	trustworthiness	-0.28	0.701
id-1289_gender-F_age-20	1	4	1	2	43	id-1289_gender-F_age-20	trustworthiness	-0.22499999999999998	0.493
id-1370_gender-M_age-19	1	4	1	2	44	id-1370_gender-M_age-19	trustworthiness	0.09499999999999997	0.643
id-1279_gender-F_age-19	1	4	1	2	45	id-1279_gender-F_age-19	trustworthiness	0.3174999999999999	0.45899999999999996
id-1264_gender-F_age-26	1	4	1	2	46	id-1264_gender-F_age-26	trustworthiness	0.08749999999999991	0.618
id-1367_gender-M_age-20	1	4	1	2	47	id-1367_gender-M_age-20	trustworthiness	-0.22999999999999998	0.634
id-1380_gender-F_age-21	1	4	1	2	48	id-1380_gender-F_age-21	trustworthiness	0.1725000000000001	0.643
id-1315_gender-M_age-16	1	4	1	2	49	id-1315_gender-M_age-16	trustworthiness	-0.275	0.659
id-1310_gender-F_age-28	1	4	1	2	50	id-1310_gender-F_age-28	trustworthiness	-0.1975	0.9009999999999999
id-1273_gender-F_age-20	1	4	1	6	1	id-1273_gender-F_age-20	dominance	-0.29000000000000004	0.609
id-1309_gender-M_age-22	1	4	1	6	2	id-1309_gender-M_age-22	dominance	-0.06999999999999995	0.5760000000000001
id-1296_gender-F_age-23	1	4	1	6	3	id-1296_gender-F_age-23	dominance	-0.2025	0.409
id-1339_gender-F_age-30	1	4	1	6	4	id-1339_gender-F_age-30	dominance	-0.20499999999999996	0.5429999999999999
id-1355_gender-F_age-19	1	4	1	6	5	id-1355_gender-F_age-19	dominance	-0.17000000000000004	0.5589999999999999
id-1361_gender-F_age-19	1	4	1	6	6	id-1361_gender-F_age-19	dominance	0.1200000000000001	0.684
id-1302_gender-F_age-30	1	4	1	6	7	id-1302_gender-F_age-30	dominance	0.12749999999999995	0.493
id-1354_gender-F_age-23	1	4	1	6	8	id-1354_gender-F_age-23	dominance	-0.14	0.426
id-1294_gender-F_age-26	1	4	1	6	9	id-1294_gender-F_age-26	dominance	-0.29000000000000004	0.509
id-1356_gender-F_age-20	1	4	1	6	10	id-1356_gender-F_age-20	dominance	0.0774999999999999	0.593
id-1358_gender-F_age-32	1	4	1	6	11	id-1358_gender-F_age-32	dominance	0.26	0.735
id-1260_gender-F_age-22	1	4	1	6	12	id-1260_gender-F_age-22	dominance	-0.13249999999999995	1.16
id-1345_gender-M_age-18	1	4	1	6	13	id-1345_gender-M_age-18	dominance	0.11749999999999994	0.5760000000000001
id-1377_gender-M_age-20	1	4	1	6	14	id-1377_gender-M_age-20	dominance	0.1825000000000001	0.726
id-1373_gender-F_age-30	1	4	1	6	15	id-1373_gender-F_age-30	dominance	0.08749999999999991	0.551
id-1264_gender-F_age-26	1	4	1	6	16	id-1264_gender-F_age-26	dominance	-0.14749999999999996	0.7340000000000001
id-1363_gender-M_age-19	1	4	1	6	17	id-1363_gender-M_age-19	dominance	-0.32999999999999996	0.526
id-1297_gender-F_age-22	1	4	1	6	18	id-1297_gender-F_age-22	dominance	-0.11499999999999999	1.735
id-1307_gender-F_age-22	1	4	1	6	19	id-1307_gender-F_age-22	dominance	-0.275	0.643
id-1367_gender-M_age-20	1	4	1	6	20	id-1367_gender-M_age-20	dominance	0.14500000000000002	0.659
id-1279_gender-F_age-19	1	4	1	6	21	id-1279_gender-F_age-19	dominance	-0.10750000000000004	0.743
id-1290_gender-F_age-23	1	4	1	6	22	id-1290_gender-F_age-23	dominance	0.3600000000000001	0.7929999999999999
id-1269_gender-F_age-23	1	4	1	6	23	id-1269_gender-F_age-23	dominance	0.19500000000000006	0.868
id-1293_gender-F_age-31	1	4	1	6	24	id-1293_gender-F_age-31	dominance	0.20999999999999996	0.643
id-1311_gender-F_age-22	1	4	1	6	25	id-1311_gender-F_age-22	dominance	-0.18500000000000005	0.693
id-1280_gender-M_age-18	1	4	1	6	26	id-1280_gender-M_age-18	dominance	0.125	0.743
id-1274_gender-F_age-33	1	4	1	6	27	id-1274_gender-F_age-33	dominance	0.25	1.4680000000000002
id-1306_gender-F_age-21	1	4	1	6	28	id-1306_gender-F_age-21	dominance	-0.19999999999999996	0.943
id-1289_gender-F_age-20	1	4	1	6	29	id-1289_gender-F_age-20	dominance	0.2124999999999999	1.66
id-1380_gender-F_age-21	1	4	1	6	30	id-1380_gender-F_age-21	dominance	-0.21499999999999997	0.818
id-1360_gender-F_age-20	1	4	1	6	31	id-1360_gender-F_age-20	dominance	-0.22499999999999998	0.826
id-1291_gender-F_age-24	1	4	1	6	32	id-1291_gender-F_age-24	dominance	0.16999999999999993	0.634
id-1266_gender-M_age-21	1	4	1	6	33	id-1266_gender-M_age-21	dominance	0.22999999999999998	0.826
id-1342_gender-M_age-19	1	4	1	6	34	id-1342_gender-M_age-19	dominance	0.37749999999999995	1.318
id-1344_gender-M_age-25	1	4	1	6	35	id-1344_gender-M_age-25	dominance	0.1100000000000001	0.6759999999999999
id-1315_gender-M_age-16	1	4	1	6	36	id-1315_gender-M_age-16	dominance	0.31499999999999995	1.2009999999999998
id-1347_gender-F_age-27	1	4	1	6	37	id-1347_gender-F_age-27	dominance	-0.24750000000000005	0.518
id-1318_gender-M_age-35	1	4	1	6	38	id-1318_gender-M_age-35	dominance	0.27249999999999996	0.9259999999999999
id-1295_gender-F_age-26	1	4	1	6	39	id-1295_gender-F_age-26	dominance	0.2649999999999999	0.735
id-1370_gender-M_age-19	1	4	1	6	40	id-1370_gender-M_age-19	dominance	-0.31499999999999995	0.743
id-1362_gender-F_age-24	1	4	1	6	41	id-1362_gender-F_age-24	dominance	-0.18500000000000005	0.718
id-1335_gender-M_age-23	1	4	1	6	42	id-1335_gender-M_age-23	dominance	-0.36250000000000004	0.826
id-1285_gender-F_age-19	1	4	1	6	43	id-1285_gender-F_age-19	dominance	0.040000000000000036	0.501
id-1366_gender-F_age-24	1	4	1	6	44	id-1366_gender-F_age-24	dominance	-0.12250000000000005	0.743
id-1323_gender-F_age-23	1	4	1	6	45	id-1323_gender-F_age-23	dominance	0.10499999999999998	4.101
id-1378_gender-F_age-19	1	4	1	6	46	id-1378_gender-F_age-19	dominance	-0.35	0.61
id-1341_gender-M_age-19	1	4	1	6	47	id-1341_gender-M_age-19	dominance	-0.3425	0.609
id-1376_gender-F_age-19	1	4	1	6	48	id-1376_gender-F_age-19	dominance	-0.5025	1.001
id-1310_gender-F_age-28	1	4	1	6	49	id-1310_gender-F_age-28	dominance	0.16500000000000004	0.601
id-1270_gender-F_age-30	1	4	1	6	50	id-1270_gender-F_age-30	dominance	-0.04500000000000004	0.718
id-1378_gender-F_age-19	1	4	1	8	1	id-1378_gender-F_age-19	arousal	0.3641276547857757	3.8689797731972253
id-1378_gender-F_age-19	1	4	1	8	1	id-1378_gender-F_age-19	valence	0.1847863894913451	3.8689797731972253
id-1341_gender-M_age-19	1	4	1	8	2	id-1341_gender-M_age-19	arousal	0.32064850431722386	2.702262294013053
id-1341_gender-M_age-19	1	4	1	8	2	id-1341_gender-M_age-19	valence	0.3179412878012849	2.702262294013053
id-1323_gender-F_age-23	1	4	1	8	3	id-1323_gender-F_age-23	arousal	0.555707661537832	0.5518474827576938
id-1323_gender-F_age-23	1	4	1	8	3	id-1323_gender-F_age-23	valence	-0.22283064615132792	0.5518474827576938
id-1377_gender-M_age-20	1	4	1	8	4	id-1377_gender-M_age-20	arousal	0.5665774491549699	0.4353453480284771
id-1377_gender-M_age-20	1	4	1	8	4	id-1377_gender-M_age-20	valence	0.16032936735278475	0.4353453480284771
id-1344_gender-M_age-25	1	4	1	8	5	id-1344_gender-M_age-25	arousal	0.33695318574293076	0.4686265406758139
id-1344_gender-M_age-25	1	4	1	8	5	id-1344_gender-M_age-25	valence	-0.2554400090027418	0.4686265406758139
id-1309_gender-M_age-22	1	4	1	8	6	id-1309_gender-M_age-22	arousal	0.2866804180136677	1.3687289304134538
id-1309_gender-M_age-22	1	4	1	8	6	id-1309_gender-M_age-22	valence	-0.19837362401276756	1.3687289304134538
id-1285_gender-F_age-19	1	4	1	8	7	id-1285_gender-F_age-19	arousal	0.2771693538486721	0.4353230106444244
id-1285_gender-F_age-19	1	4	1	8	7	id-1285_gender-F_age-19	valence	-0.13315489830993985	0.4353230106444244
id-1290_gender-F_age-23	1	4	1	8	8	id-1290_gender-F_age-23	arousal	0.6168502168842329	0.5519413601414271
id-1290_gender-F_age-23	1	4	1	8	8	id-1290_gender-F_age-23	valence	0.15489447354421576	0.5519413601414271
id-1366_gender-F_age-24	1	4	1	8	9	id-1366_gender-F_age-24	arousal	0.6046217058149528	0.4602774906784362
id-1366_gender-F_age-24	1	4	1	8	9	id-1366_gender-F_age-24	valence	-0.28261447804558665	0.4602774906784362
id-1367_gender-M_age-20	1	4	1	8	10	id-1367_gender-M_age-20	arousal	0.6521770266399313	1.1687577275274634
id-1367_gender-M_age-20	1	4	1	8	10	id-1367_gender-M_age-20	valence	0.2500051151941728	1.1687577275274634
id-1291_gender-F_age-24	1	4	1	8	11	id-1291_gender-F_age-24	arousal	0.399454464541474	2.010477440449904
id-1291_gender-F_age-24	1	4	1	8	11	id-1291_gender-F_age-24	valence	0.09239319474567256	2.010477440449904
id-1345_gender-M_age-18	1	4	1	8	12	id-1345_gender-M_age-18	arousal	0.3967370176371895	2.6027371747195502
id-1345_gender-M_age-18	1	4	1	8	12	id-1345_gender-M_age-18	valence	0.1820689425870606	2.6027371747195502
id-1310_gender-F_age-28	1	4	1	8	13	id-1310_gender-F_age-28	arousal	0.7744621373327332	0.6685591059253966
id-1310_gender-F_age-28	1	4	1	8	13	id-1310_gender-F_age-28	valence	-0.2744621373327332	0.6685591059253966
id-1315_gender-M_age-16	1	4	1	8	14	id-1315_gender-M_age-16	arousal	0.5679361726071122	2.1437938899407527
id-1315_gender-M_age-16	1	4	1	8	14	id-1315_gender-M_age-16	valence	-0.28533192494987114	2.1437938899407527
id-1339_gender-F_age-30	1	4	1	8	15	id-1339_gender-F_age-30	arousal	0.6236438341449442	1.1854464699690652
id-1339_gender-F_age-30	1	4	1	8	15	id-1339_gender-F_age-30	valence	0.2527225620984573	1.1854464699690652
id-1270_gender-F_age-30	1	4	1	8	16	id-1270_gender-F_age-30	arousal	0.19972211707656423	0.7435870578401591
id-1270_gender-F_age-30	1	4	1	8	16	id-1270_gender-F_age-30	valence	0.05163149118140525	0.7435870578401591
id-1260_gender-F_age-22	1	4	1	8	17	id-1260_gender-F_age-22	arousal	0.18885232945942626	0.8695400189321845
id-1260_gender-F_age-22	1	4	1	8	17	id-1260_gender-F_age-22	valence	0.17391660187420716	0.8695400189321845
id-1306_gender-F_age-21	1	4	1	8	18	id-1306_gender-F_age-21	arousal	0.6086978761713795	0.4602904705097899
id-1306_gender-F_age-21	1	4	1	8	18	id-1306_gender-F_age-21	valence	-0.21467830543847446	0.4602904705097899
id-1362_gender-F_age-24	1	4	1	8	19	id-1362_gender-F_age-24	arousal	0.32744212157793506	0.8021713748235015
id-1362_gender-F_age-24	1	4	1	8	19	id-1362_gender-F_age-24	valence	0.11413276997994845	0.8021713748235015
id-1376_gender-F_age-19	1	4	1	8	20	id-1376_gender-F_age-19	arousal	0.43206382739288784	0.7685490842877698
id-1376_gender-F_age-19	1	4	1	8	20	id-1376_gender-F_age-19	valence	0.30707150018414703	0.7685490842877698
id-1380_gender-F_age-21	1	4	1	8	21	id-1380_gender-F_age-21	arousal	0.5788059602242501	0.9185627282035966
id-1380_gender-F_age-21	1	4	1	8	21	id-1380_gender-F_age-21	valence	0.11956766378851742	0.9185627282035966
id-1279_gender-F_age-19	1	4	1	8	22	id-1279_gender-F_age-19	arousal	0.30977871670008594	0.651929225508411
id-1279_gender-F_age-19	1	4	1	8	22	id-1279_gender-F_age-19	valence	0.38044256659982817	0.651929225508411
id-1355_gender-F_age-19	1	4	1	8	23	id-1355_gender-F_age-19	arousal	0.2268965861194091	0.468537492996802
id-1355_gender-F_age-19	1	4	1	8	23	id-1355_gender-F_age-19	valence	-0.2527225620984573	0.468537492996802
id-1335_gender-M_age-23	1	4	1	8	24	id-1335_gender-M_age-23	arousal	0.5937519181978148	0.6519965395164036
id-1335_gender-M_age-23	1	4	1	8	24	id-1335_gender-M_age-23	valence	0.14945957973564675	0.6519965395164036
id-1295_gender-F_age-26	1	4	1	8	25	id-1295_gender-F_age-26	arousal	0.3247246746736505	1.0936793655700967
id-1295_gender-F_age-26	1	4	1	8	25	id-1295_gender-F_age-26	valence	-0.11141532307566396	1.0936793655700967
id-1289_gender-F_age-20	1	4	1	8	26	id-1289_gender-F_age-20	arousal	0.2921153118222367	0.7020171865037811
id-1289_gender-F_age-20	1	4	1	8	26	id-1289_gender-F_age-20	valence	0.11956766378851742	0.7020171865037811
id-1311_gender-F_age-22	1	4	1	8	27	id-1311_gender-F_age-22	arousal	0.394019570732905	0.7272225093211091
id-1311_gender-F_age-22	1	4	1	8	27	id-1311_gender-F_age-22	valence	0.201091070917052	0.7272225093211091
id-1273_gender-F_age-20	1	4	1	8	28	id-1273_gender-F_age-20	arousal	0.6250025575970863	0.7936529833086752
id-1273_gender-F_age-20	1	4	1	8	28	id-1273_gender-F_age-20	valence	0.2527225620984573	0.7936529833086752
id-1356_gender-F_age-20	1	4	1	8	29	id-1356_gender-F_age-20	arousal	0.5380442566599828	0.8018891389601777
id-1356_gender-F_age-20	1	4	1	8	29	id-1356_gender-F_age-20	valence	-0.06793617260711217	0.8018891389601777
id-1294_gender-F_age-26	1	4	1	8	30	id-1294_gender-F_age-26	arousal	0.6793514956827762	0.7186141645574935
id-1294_gender-F_age-26	1	4	1	8	30	id-1294_gender-F_age-26	valence	0.3097889470884315	0.7186141645574935
id-1274_gender-F_age-33	1	4	1	8	31	id-1274_gender-F_age-33	arousal	0.5665774491549699	0.5768562969687991
id-1274_gender-F_age-33	1	4	1	8	31	id-1274_gender-F_age-33	valence	-0.5652289560911733	0.5768562969687991
id-1360_gender-F_age-20	1	4	1	8	32	id-1360_gender-F_age-20	arousal	0.5815234071285346	0.6935274713596301
id-1360_gender-F_age-20	1	4	1	8	32	id-1360_gender-F_age-20	valence	-0.2092434116299055	0.6935274713596301
id-1269_gender-F_age-23	1	4	1	8	33	id-1269_gender-F_age-23	arousal	0.6915800067520563	0.6019819296602691
id-1269_gender-F_age-23	1	4	1	8	33	id-1269_gender-F_age-23	valence	-0.17663404877849165	0.6019819296602691
id-1354_gender-F_age-23	1	4	1	8	34	id-1354_gender-F_age-23	arousal	0.2730931834922453	1.0770214124954691
id-1354_gender-F_age-23	1	4	1	8	34	id-1354_gender-F_age-23	valence	-0.1820689425870606	1.0770214124954691
id-1302_gender-F_age-30	1	4	1	8	35	id-1302_gender-F_age-30	arousal	0.6413072390227933	0.5935377948535461
id-1302_gender-F_age-30	1	4	1	8	35	id-1302_gender-F_age-30	valence	-0.29348426566272456	0.5935377948535461
id-1373_gender-F_age-30	1	4	1	8	36	id-1373_gender-F_age-30	arousal	0.6250025575970863	2.56887038038758
id-1373_gender-F_age-30	1	4	1	8	36	id-1373_gender-F_age-30	valence	-0.20652596472562101	2.56887038038758
id-1370_gender-M_age-19	1	4	1	8	37	id-1370_gender-M_age-19	arousal	0.3682038251422024	3.502615888762648
id-1370_gender-M_age-19	1	4	1	8	37	id-1370_gender-M_age-19	valence	0.23098298686418134	3.502615888762648
id-1264_gender-F_age-26	1	4	1	8	38	id-1264_gender-F_age-26	arousal	0.23640765028440475	0.768638735679815
id-1264_gender-F_age-26	1	4	1	8	38	id-1264_gender-F_age-26	valence	-0.26359234971559525	0.768638735679815
id-1297_gender-F_age-22	1	4	1	8	39	id-1297_gender-F_age-22	arousal	0.5760885133199657	0.7938117598478129
id-1297_gender-F_age-22	1	4	1	8	39	id-1297_gender-F_age-22	valence	-0.1711991549699227	0.7938117598478129
id-1307_gender-F_age-22	1	4	1	8	40	id-1307_gender-F_age-22	arousal	0.3532578671686377	0.4184923956299825
id-1307_gender-F_age-22	1	4	1	8	40	id-1307_gender-F_age-22	valence	-0.22283064615132792	0.4184923956299825
id-1318_gender-M_age-35	1	4	1	8	41	id-1318_gender-M_age-35	arousal	0.3410293560993576	0.5439186170619905
id-1318_gender-M_age-35	1	4	1	8	41	id-1318_gender-M_age-35	valence	-0.1820689425870606	0.5439186170619905
id-1342_gender-M_age-19	1	4	1	8	42	id-1342_gender-M_age-19	arousal	0.5788059602242501	0.5685501106008815
id-1342_gender-M_age-19	1	4	1	8	42	id-1342_gender-M_age-19	valence	-0.11413276997994845	0.5685501106008815
id-1296_gender-F_age-23	1	4	1	8	43	id-1296_gender-F_age-23	arousal	0.555707661537832	0.8019313988761496
id-1296_gender-F_age-23	1	4	1	8	43	id-1296_gender-F_age-23	valence	0.100545535458526	0.8019313988761496
id-1347_gender-F_age-27	1	4	1	8	44	id-1347_gender-F_age-27	arousal	0.2975502056308057	1.0019107518883177
id-1347_gender-F_age-27	1	4	1	8	44	id-1347_gender-F_age-27	valence	-0.1875038363956296	1.0019107518883177
id-1266_gender-M_age-21	1	4	1	8	45	id-1266_gender-M_age-21	arousal	0.3070612697958014	1.7854439947459468
id-1266_gender-M_age-21	1	4	1	8	45	id-1266_gender-M_age-21	valence	-0.15761192044850025	1.7854439947459468
id-1361_gender-F_age-19	1	4	1	8	46	id-1361_gender-F_age-19	arousal	0.6820689425870606	0.7103348434211512
id-1361_gender-F_age-19	1	4	1	8	46	id-1361_gender-F_age-19	valence	-0.1875038363956296	0.7103348434211512
id-1280_gender-M_age-18	1	4	1	8	47	id-1280_gender-M_age-18	arousal	0.717395752342759	0.7519759529004659
id-1280_gender-M_age-18	1	4	1	8	47	id-1280_gender-M_age-18	valence	-0.418486823259811	0.7519759529004659
id-1358_gender-F_age-32	1	4	1	8	48	id-1358_gender-F_age-32	arousal	0.5910344712935303	0.4936869723551354
id-1358_gender-F_age-32	1	4	1	8	48	id-1358_gender-F_age-32	valence	-0.11956766378851742	0.4936869723551354
id-1293_gender-F_age-31	1	4	1	8	49	id-1293_gender-F_age-31	arousal	0.42662893358431886	0.8603530151840459
id-1293_gender-F_age-31	1	4	1	8	49	id-1293_gender-F_age-31	valence	-0.11956766378851742	0.8603530151840459
id-1363_gender-M_age-19	1	4	1	8	50	id-1363_gender-M_age-19	arousal	0.33287701538650405	0.6519769188416831
id-1363_gender-M_age-19	1	4	1	8	50	id-1363_gender-M_age-19	valence	0.24457022138560386	0.6519769188416831
id-1291_gender-F_age-24	2	4	2	3	1	id-1291_gender-F_age-24	trustworthiness	-0.44999999999999996	0.784
id-1345_gender-M_age-18	2	4	2	3	2	id-1345_gender-M_age-18	trustworthiness	-0.3474999999999999	0.885
id-1273_gender-F_age-20	2	4	2	3	3	id-1273_gender-F_age-20	trustworthiness	0.20750000000000002	0.526
id-1302_gender-F_age-30	2	4	2	3	4	id-1302_gender-F_age-30	trustworthiness	-0.35	0.526
id-1362_gender-F_age-24	2	4	2	3	5	id-1362_gender-F_age-24	trustworthiness	0.19500000000000006	0.593
id-1293_gender-F_age-31	2	4	2	3	6	id-1293_gender-F_age-31	trustworthiness	-0.2025	0.643
id-1377_gender-M_age-20	2	4	2	3	7	id-1377_gender-M_age-20	trustworthiness	-0.265	0.693
id-1270_gender-F_age-30	2	4	2	3	8	id-1270_gender-F_age-30	trustworthiness	-0.08750000000000002	0.56
id-1363_gender-M_age-19	2	4	2	3	9	id-1363_gender-M_age-19	trustworthiness	0.15749999999999997	0.985
id-1266_gender-M_age-21	2	4	2	3	10	id-1266_gender-M_age-21	trustworthiness	-0.10999999999999999	1.943
id-1279_gender-F_age-19	2	4	2	3	11	id-1279_gender-F_age-19	trustworthiness	0.24249999999999994	0.884
id-1373_gender-F_age-30	2	4	2	3	12	id-1373_gender-F_age-30	trustworthiness	-0.15500000000000003	0.693
id-1323_gender-F_age-23	2	4	2	3	13	id-1323_gender-F_age-23	trustworthiness	-0.255	0.5760000000000001
id-1354_gender-F_age-23	2	4	2	3	14	id-1354_gender-F_age-23	trustworthiness	-0.09999999999999998	0.885
id-1297_gender-F_age-22	2	4	2	3	15	id-1297_gender-F_age-22	trustworthiness	-0.22499999999999998	0.726
id-1296_gender-F_age-23	2	4	2	3	16	id-1296_gender-F_age-23	trustworthiness	0.0774999999999999	0.976
id-1290_gender-F_age-23	2	4	2	3	17	id-1290_gender-F_age-23	trustworthiness	-0.14	0.561
id-1311_gender-F_age-22	2	4	2	3	18	id-1311_gender-F_age-22	trustworthiness	-0.14	0.659
id-1307_gender-F_age-22	2	4	2	3	19	id-1307_gender-F_age-22	trustworthiness	0.08749999999999991	0.6509999999999999
id-1280_gender-M_age-18	2	4	2	3	20	id-1280_gender-M_age-18	trustworthiness	-0.48	0.893
id-1360_gender-F_age-20	2	4	2	3	21	id-1360_gender-F_age-20	trustworthiness	-0.10250000000000004	1.401
id-1342_gender-M_age-19	2	4	2	3	22	id-1342_gender-M_age-19	trustworthiness	-0.22499999999999998	0.768
id-1358_gender-F_age-32	2	4	2	3	23	id-1358_gender-F_age-32	trustworthiness	-0.11250000000000004	0.684
id-1310_gender-F_age-28	2	4	2	3	24	id-1310_gender-F_age-28	trustworthiness	-0.18000000000000005	0.7090000000000001
id-1309_gender-M_age-22	2	4	2	3	25	id-1309_gender-M_age-22	trustworthiness	-0.1725	0.71
id-1355_gender-F_age-19	2	4	2	3	26	id-1355_gender-F_age-19	trustworthiness	-0.12250000000000005	3.093
id-1378_gender-F_age-19	2	4	2	3	27	id-1378_gender-F_age-19	trustworthiness	0.09250000000000003	1.7180000000000002
id-1367_gender-M_age-20	2	4	2	3	28	id-1367_gender-M_age-20	trustworthiness	-0.15500000000000003	0.5760000000000001
id-1376_gender-F_age-19	2	4	2	3	29	id-1376_gender-F_age-19	trustworthiness	-0.20750000000000002	0.6679999999999999
id-1341_gender-M_age-19	2	4	2	3	30	id-1341_gender-M_age-19	trustworthiness	-0.16249999999999998	0.618
id-1380_gender-F_age-21	2	4	2	3	31	id-1380_gender-F_age-21	trustworthiness	-0.15249999999999997	0.718
id-1347_gender-F_age-27	2	4	2	3	32	id-1347_gender-F_age-27	trustworthiness	-0.1825	0.627
id-1289_gender-F_age-20	2	4	2	3	33	id-1289_gender-F_age-20	trustworthiness	-0.16749999999999998	0.6509999999999999
id-1318_gender-M_age-35	2	4	2	3	34	id-1318_gender-M_age-35	trustworthiness	-0.25749999999999995	0.826
id-1269_gender-F_age-23	2	4	2	3	35	id-1269_gender-F_age-23	trustworthiness	0.12250000000000005	1.1840000000000002
id-1274_gender-F_age-33	2	4	2	3	36	id-1274_gender-F_age-33	trustworthiness	-0.18500000000000005	0.643
id-1356_gender-F_age-20	2	4	2	3	37	id-1356_gender-F_age-20	trustworthiness	0.1399999999999999	0.6679999999999999
id-1339_gender-F_age-30	2	4	2	3	38	id-1339_gender-F_age-30	trustworthiness	0.1775	0.701
id-1315_gender-M_age-16	2	4	2	3	39	id-1315_gender-M_age-16	trustworthiness	-0.17000000000000004	0.6509999999999999
id-1335_gender-M_age-23	2	4	2	3	40	id-1335_gender-M_age-23	trustworthiness	0.16999999999999993	1.001
id-1306_gender-F_age-21	2	4	2	3	41	id-1306_gender-F_age-21	trustworthiness	-0.125	0.768
id-1260_gender-F_age-22	2	4	2	3	42	id-1260_gender-F_age-22	trustworthiness	0.16500000000000004	0.96
id-1370_gender-M_age-19	2	4	2	3	43	id-1370_gender-M_age-19	trustworthiness	0.2250000000000001	0.826
id-1361_gender-F_age-19	2	4	2	3	44	id-1361_gender-F_age-19	trustworthiness	0.0774999999999999	0.5429999999999999
id-1295_gender-F_age-26	2	4	2	3	45	id-1295_gender-F_age-26	trustworthiness	-0.25	0.626
id-1285_gender-F_age-19	2	4	2	3	46	id-1285_gender-F_age-19	trustworthiness	-0.18999999999999995	0.618
id-1264_gender-F_age-26	2	4	2	3	47	id-1264_gender-F_age-26	trustworthiness	-0.08250000000000002	1.351
id-1344_gender-M_age-25	2	4	2	3	48	id-1344_gender-M_age-25	trustworthiness	-0.23250000000000004	0.626
id-1366_gender-F_age-24	2	4	2	3	49	id-1366_gender-F_age-24	trustworthiness	-0.07999999999999996	0.526
id-1294_gender-F_age-26	2	4	2	3	50	id-1294_gender-F_age-26	trustworthiness	-0.1925	1.5430000000000001
id-1264_gender-F_age-26	2	4	2	4	1	id-1264_gender-F_age-26	attractiveness	-0.31999999999999995	0.693
id-1358_gender-F_age-32	2	4	2	4	2	id-1358_gender-F_age-32	attractiveness	-0.10999999999999999	0.784
id-1376_gender-F_age-19	2	4	2	4	3	id-1376_gender-F_age-19	attractiveness	0.125	0.61
id-1279_gender-F_age-19	2	4	2	4	4	id-1279_gender-F_age-19	attractiveness	0.08250000000000002	0.526
id-1356_gender-F_age-20	2	4	2	4	5	id-1356_gender-F_age-20	attractiveness	-0.13249999999999995	0.584
id-1318_gender-M_age-35	2	4	2	4	6	id-1318_gender-M_age-35	attractiveness	-0.18000000000000005	0.884
id-1323_gender-F_age-23	2	4	2	4	7	id-1323_gender-F_age-23	attractiveness	-0.19499999999999995	0.6759999999999999
id-1378_gender-F_age-19	2	4	2	4	8	id-1378_gender-F_age-19	attractiveness	0.2250000000000001	0.6509999999999999
id-1380_gender-F_age-21	2	4	2	4	9	id-1380_gender-F_age-21	attractiveness	-0.1725	1.751
id-1315_gender-M_age-16	2	4	2	4	10	id-1315_gender-M_age-16	attractiveness	0.0774999999999999	0.718
id-1273_gender-F_age-20	2	4	2	4	11	id-1273_gender-F_age-20	attractiveness	0.3374999999999999	0.726
id-1366_gender-F_age-24	2	4	2	4	12	id-1366_gender-F_age-24	attractiveness	-0.14500000000000002	0.56
id-1294_gender-F_age-26	2	4	2	4	13	id-1294_gender-F_age-26	attractiveness	0.26750000000000007	0.843
id-1290_gender-F_age-23	2	4	2	4	14	id-1290_gender-F_age-23	attractiveness	0.14500000000000002	0.56
id-1354_gender-F_age-23	2	4	2	4	15	id-1354_gender-F_age-23	attractiveness	-0.09499999999999997	0.7509999999999999
id-1306_gender-F_age-21	2	4	2	4	16	id-1306_gender-F_age-21	attractiveness	0.050000000000000044	0.826
id-1344_gender-M_age-25	2	4	2	4	17	id-1344_gender-M_age-25	attractiveness	-0.26249999999999996	1.401
id-1307_gender-F_age-22	2	4	2	4	18	id-1307_gender-F_age-22	attractiveness	-0.12749999999999995	0.826
id-1309_gender-M_age-22	2	4	2	4	19	id-1309_gender-M_age-22	attractiveness	-0.25249999999999995	0.968
id-1362_gender-F_age-24	2	4	2	4	20	id-1362_gender-F_age-24	attractiveness	-0.12	0.76
id-1297_gender-F_age-22	2	4	2	4	21	id-1297_gender-F_age-22	attractiveness	0.0674999999999999	0.5589999999999999
id-1296_gender-F_age-23	2	4	2	4	22	id-1296_gender-F_age-23	attractiveness	-0.30000000000000004	0.8590000000000001
id-1341_gender-M_age-19	2	4	2	4	23	id-1341_gender-M_age-19	attractiveness	0.08250000000000002	2.501
id-1280_gender-M_age-18	2	4	2	4	24	id-1280_gender-M_age-18	attractiveness	-0.4675	0.6759999999999999
id-1377_gender-M_age-20	2	4	2	4	25	id-1377_gender-M_age-20	attractiveness	0.18500000000000005	0.618
id-1367_gender-M_age-20	2	4	2	4	26	id-1367_gender-M_age-20	attractiveness	0.42999999999999994	1.051
id-1360_gender-F_age-20	2	4	2	4	27	id-1360_gender-F_age-20	attractiveness	-0.32999999999999996	0.743
id-1302_gender-F_age-30	2	4	2	4	28	id-1302_gender-F_age-30	attractiveness	-0.375	0.7340000000000001
id-1310_gender-F_age-28	2	4	2	4	29	id-1310_gender-F_age-28	attractiveness	0.11250000000000004	0.693
id-1266_gender-M_age-21	2	4	2	4	30	id-1266_gender-M_age-21	attractiveness	0.24	0.593
id-1345_gender-M_age-18	2	4	2	4	31	id-1345_gender-M_age-18	attractiveness	0.17500000000000004	1.226
id-1347_gender-F_age-27	2	4	2	4	32	id-1347_gender-F_age-27	attractiveness	-0.4125	0.6509999999999999
id-1295_gender-F_age-26	2	4	2	4	33	id-1295_gender-F_age-26	attractiveness	-0.255	0.9009999999999999
id-1260_gender-F_age-22	2	4	2	4	34	id-1260_gender-F_age-22	attractiveness	-0.18000000000000005	0.551
id-1291_gender-F_age-24	2	4	2	4	35	id-1291_gender-F_age-24	attractiveness	0.10499999999999998	0.593
id-1363_gender-M_age-19	2	4	2	4	36	id-1363_gender-M_age-19	attractiveness	0.06499999999999995	0.6759999999999999
id-1361_gender-F_age-19	2	4	2	4	37	id-1361_gender-F_age-19	attractiveness	0.1299999999999999	0.626
id-1355_gender-F_age-19	2	4	2	4	38	id-1355_gender-F_age-19	attractiveness	-0.21999999999999997	0.7340000000000001
id-1311_gender-F_age-22	2	4	2	4	39	id-1311_gender-F_age-22	attractiveness	0.12749999999999995	0.8009999999999999
id-1274_gender-F_age-33	2	4	2	4	40	id-1274_gender-F_age-33	attractiveness	-0.3474999999999999	0.868
id-1293_gender-F_age-31	2	4	2	4	41	id-1293_gender-F_age-31	attractiveness	-0.14	0.6509999999999999
id-1339_gender-F_age-30	2	4	2	4	42	id-1339_gender-F_age-30	attractiveness	-0.27	0.743
id-1373_gender-F_age-30	2	4	2	4	43	id-1373_gender-F_age-30	attractiveness	-0.14500000000000002	0.601
id-1342_gender-M_age-19	2	4	2	4	44	id-1342_gender-M_age-19	attractiveness	-0.235	0.634
id-1285_gender-F_age-19	2	4	2	4	45	id-1285_gender-F_age-19	attractiveness	-0.135	0.7340000000000001
id-1289_gender-F_age-20	2	4	2	4	46	id-1289_gender-F_age-20	attractiveness	-0.3175	0.884
id-1335_gender-M_age-23	2	4	2	4	47	id-1335_gender-M_age-23	attractiveness	0.07000000000000006	1.193
id-1269_gender-F_age-23	2	4	2	4	48	id-1269_gender-F_age-23	attractiveness	-0.10999999999999999	0.684
id-1370_gender-M_age-19	2	4	2	4	49	id-1370_gender-M_age-19	attractiveness	0.2450000000000001	0.7509999999999999
id-1270_gender-F_age-30	2	4	2	4	50	id-1270_gender-F_age-30	attractiveness	-0.21750000000000003	0.684
id-1354_gender-F_age-23	2	4	2	5	1	id-1354_gender-F_age-23	dominance	0.10000000000000009	0.568
id-1356_gender-F_age-20	2	4	2	5	2	id-1356_gender-F_age-20	dominance	-0.28	0.551
id-1363_gender-M_age-19	2	4	2	5	3	id-1363_gender-M_age-19	dominance	-0.2775000000000001	0.568
id-1311_gender-F_age-22	2	4	2	5	4	id-1311_gender-F_age-22	dominance	-0.32999999999999996	0.701
id-1370_gender-M_age-19	2	4	2	5	5	id-1370_gender-M_age-19	dominance	-0.14	0.768
id-1291_gender-F_age-24	2	4	2	5	6	id-1291_gender-F_age-24	dominance	0.24249999999999994	0.743
id-1295_gender-F_age-26	2	4	2	5	7	id-1295_gender-F_age-26	dominance	0.38250000000000006	0.726
id-1318_gender-M_age-35	2	4	2	5	8	id-1318_gender-M_age-35	dominance	0.4325000000000001	0.619
id-1376_gender-F_age-19	2	4	2	5	9	id-1376_gender-F_age-19	dominance	-0.08250000000000002	0.743
id-1260_gender-F_age-22	2	4	2	5	10	id-1260_gender-F_age-22	dominance	-0.37	0.634
id-1279_gender-F_age-19	2	4	2	5	11	id-1279_gender-F_age-19	dominance	-0.42500000000000004	0.818
id-1373_gender-F_age-30	2	4	2	5	12	id-1373_gender-F_age-30	dominance	-0.13749999999999996	0.46799999999999997
id-1280_gender-M_age-18	2	4	2	5	13	id-1280_gender-M_age-18	dominance	0.4650000000000001	0.509
id-1302_gender-F_age-30	2	4	2	5	14	id-1302_gender-F_age-30	dominance	0.33000000000000007	0.701
id-1266_gender-M_age-21	2	4	2	5	15	id-1266_gender-M_age-21	dominance	0.27	3.36
id-1296_gender-F_age-23	2	4	2	5	16	id-1296_gender-F_age-23	dominance	0.08250000000000002	0.551
id-1339_gender-F_age-30	2	4	2	5	17	id-1339_gender-F_age-30	dominance	0.20999999999999996	0.5589999999999999
id-1345_gender-M_age-18	2	4	2	5	18	id-1345_gender-M_age-18	dominance	0.2875000000000001	1.168
id-1264_gender-F_age-26	2	4	2	5	19	id-1264_gender-F_age-26	dominance	-0.18500000000000005	0.5429999999999999
id-1297_gender-F_age-22	2	4	2	5	20	id-1297_gender-F_age-22	dominance	0.15250000000000008	0.551
id-1377_gender-M_age-20	2	4	2	5	21	id-1377_gender-M_age-20	dominance	0.13250000000000006	0.7759999999999999
id-1270_gender-F_age-30	2	4	2	5	22	id-1270_gender-F_age-30	dominance	-0.18500000000000005	0.868
id-1269_gender-F_age-23	2	4	2	5	23	id-1269_gender-F_age-23	dominance	0.18500000000000005	1.168
id-1309_gender-M_age-22	2	4	2	5	24	id-1309_gender-M_age-22	dominance	-0.20999999999999996	1.21
id-1358_gender-F_age-32	2	4	2	5	25	id-1358_gender-F_age-32	dominance	0.18500000000000005	0.968
id-1344_gender-M_age-25	2	4	2	5	26	id-1344_gender-M_age-25	dominance	0.1399999999999999	0.7759999999999999
id-1285_gender-F_age-19	2	4	2	5	27	id-1285_gender-F_age-19	dominance	-0.06999999999999995	0.8590000000000001
id-1378_gender-F_age-19	2	4	2	5	28	id-1378_gender-F_age-19	dominance	-0.2975	0.826
id-1361_gender-F_age-19	2	4	2	5	29	id-1361_gender-F_age-19	dominance	0.1625000000000001	0.526
id-1290_gender-F_age-23	2	4	2	5	30	id-1290_gender-F_age-23	dominance	0.11749999999999994	1.935
id-1289_gender-F_age-20	2	4	2	5	31	id-1289_gender-F_age-20	dominance	0.1499999999999999	0.5760000000000001
id-1273_gender-F_age-20	2	4	2	5	32	id-1273_gender-F_age-20	dominance	-0.18000000000000005	0.684
id-1355_gender-F_age-19	2	4	2	5	33	id-1355_gender-F_age-19	dominance	-0.16749999999999998	0.584
id-1342_gender-M_age-19	2	4	2	5	34	id-1342_gender-M_age-19	dominance	0.38250000000000006	0.951
id-1306_gender-F_age-21	2	4	2	5	35	id-1306_gender-F_age-21	dominance	0.15500000000000003	0.968
id-1380_gender-F_age-21	2	4	2	5	36	id-1380_gender-F_age-21	dominance	-0.13249999999999995	1.601
id-1323_gender-F_age-23	2	4	2	5	37	id-1323_gender-F_age-23	dominance	-0.2925	0.5429999999999999
id-1347_gender-F_age-27	2	4	2	5	38	id-1347_gender-F_age-27	dominance	-0.07999999999999996	0.618
id-1362_gender-F_age-24	2	4	2	5	39	id-1362_gender-F_age-24	dominance	-0.35250000000000004	0.7759999999999999
id-1315_gender-M_age-16	2	4	2	5	40	id-1315_gender-M_age-16	dominance	0.2825	0.701
id-1367_gender-M_age-20	2	4	2	5	41	id-1367_gender-M_age-20	dominance	0.06000000000000005	0.643
id-1360_gender-F_age-20	2	4	2	5	42	id-1360_gender-F_age-20	dominance	-0.10999999999999999	0.568
id-1307_gender-F_age-22	2	4	2	5	43	id-1307_gender-F_age-22	dominance	0.11499999999999999	0.7090000000000001
id-1293_gender-F_age-31	2	4	2	5	44	id-1293_gender-F_age-31	dominance	0.2749999999999999	0.501
id-1335_gender-M_age-23	2	4	2	5	45	id-1335_gender-M_age-23	dominance	-0.21999999999999997	1.31
id-1310_gender-F_age-28	2	4	2	5	46	id-1310_gender-F_age-28	dominance	0.2450000000000001	0.584
id-1341_gender-M_age-19	2	4	2	5	47	id-1341_gender-M_age-19	dominance	0.37250000000000005	0.7929999999999999
id-1274_gender-F_age-33	2	4	2	5	48	id-1274_gender-F_age-33	dominance	0.17500000000000004	1.2429999999999999
id-1366_gender-F_age-24	2	4	2	5	49	id-1366_gender-F_age-24	dominance	0.0774999999999999	2.6010000000000004
id-1294_gender-F_age-26	2	4	2	5	50	id-1294_gender-F_age-26	dominance	-0.13249999999999995	0.518
id-1266_gender-M_age-21	2	4	2	7	1	id-1266_gender-M_age-21	arousal	0.349181696812211	0.9022790772369262
id-1266_gender-M_age-21	2	4	2	7	1	id-1266_gender-M_age-21	valence	0.11956766378851742	0.9022790772369262
id-1269_gender-F_age-23	2	4	2	7	2	id-1269_gender-F_age-23	arousal	0.40488935835004297	2.2605547157236288
id-1269_gender-F_age-23	2	4	2	7	2	id-1269_gender-F_age-23	valence	-0.1440246859270778	2.2605547157236288
id-1274_gender-F_age-33	2	4	2	7	3	id-1274_gender-F_age-33	arousal	0.6915800067520563	0.6770358412377391
id-1274_gender-F_age-33	2	4	2	7	3	id-1274_gender-F_age-33	valence	-0.4809881020583541	0.6770358412377391
id-1289_gender-F_age-20	2	4	2	7	4	id-1289_gender-F_age-20	arousal	0.5692948960592544	0.8771042419293735
id-1289_gender-F_age-20	2	4	2	7	4	id-1289_gender-F_age-20	valence	-0.11413276997994845	0.8771042419293735
id-1311_gender-F_age-22	2	4	2	7	5	id-1311_gender-F_age-22	arousal	0.24455999099725823	0.6352628204504072
id-1311_gender-F_age-22	2	4	2	7	5	id-1311_gender-F_age-22	valence	0.11141532307566396	0.6352628204504072
id-1323_gender-F_age-23	2	4	2	7	6	id-1323_gender-F_age-23	arousal	0.360051484429349	1.6438500352569465
id-1323_gender-F_age-23	2	4	2	7	6	id-1323_gender-F_age-23	valence	0.11413276997994845	1.6438500352569465
id-1362_gender-F_age-24	2	4	2	7	7	id-1362_gender-F_age-24	arousal	0.282604247657241	0.5019919512969864
id-1362_gender-F_age-24	2	4	2	7	7	id-1362_gender-F_age-24	valence	0.23913532757703485	0.5019919512969864
id-1354_gender-F_age-23	2	4	2	7	8	id-1354_gender-F_age-23	arousal	0.36548637823791785	0.5272087446628575
id-1354_gender-F_age-23	2	4	2	7	8	id-1354_gender-F_age-23	valence	-0.05163149118140525	0.5272087446628575
id-1302_gender-F_age-30	2	4	2	7	9	id-1302_gender-F_age-30	arousal	0.4904889358350043	0.5103379827287426
id-1302_gender-F_age-30	2	4	2	7	9	id-1302_gender-F_age-30	valence	-0.19837362401276756	0.5103379827287426
id-1360_gender-F_age-20	2	4	2	7	10	id-1360_gender-F_age-20	arousal	0.3165723339607971	0.6269783677535088
id-1360_gender-F_age-20	2	4	2	7	10	id-1360_gender-F_age-20	valence	-0.17391660187420716	0.6269783677535088
id-1363_gender-M_age-19	2	4	2	7	11	id-1363_gender-M_age-19	arousal	0.5529902146335475	0.8686145267856773
id-1363_gender-M_age-19	2	4	2	7	11	id-1363_gender-M_age-19	valence	-0.1032629823628105	0.8686145267856773
id-1356_gender-F_age-20	2	4	2	7	12	id-1356_gender-F_age-20	arousal	0.2758106303965298	0.5853647272178932
id-1356_gender-F_age-20	2	4	2	7	12	id-1356_gender-F_age-20	valence	-0.201091070917052	0.5853647272178932
id-1296_gender-F_age-23	2	4	2	7	13	id-1296_gender-F_age-23	arousal	0.3722799954986291	3.8357375200439487
id-1296_gender-F_age-23	2	4	2	7	13	id-1296_gender-F_age-23	valence	-0.10869787617137948	3.8357375200439487
id-1297_gender-F_age-22	2	4	2	7	14	id-1297_gender-F_age-22	arousal	0.5991868120063838	0.6102733250581878
id-1297_gender-F_age-22	2	4	2	7	14	id-1297_gender-F_age-22	valence	-0.1032629823628105	0.6102733250581878
id-1344_gender-M_age-25	2	4	2	7	15	id-1344_gender-M_age-25	arousal	0.13314466792159424	0.3772455107900896
id-1344_gender-M_age-25	2	4	2	7	15	id-1344_gender-M_age-25	valence	-0.13043745140565535	0.3772455107900896
id-1295_gender-F_age-26	2	4	2	7	16	id-1295_gender-F_age-26	arousal	0.4062480818021852	0.5852189305096545
id-1295_gender-F_age-26	2	4	2	7	16	id-1295_gender-F_age-26	valence	-0.2907668187584401	0.5852189305096545
id-1361_gender-F_age-19	2	4	2	7	17	id-1361_gender-F_age-19	arousal	0.5394029801121251	0.7435976228189247
id-1361_gender-F_age-19	2	4	2	7	17	id-1361_gender-F_age-19	valence	-0.10869787617137948	0.7435976228189247
id-1293_gender-F_age-31	2	4	2	7	18	id-1293_gender-F_age-31	arousal	0.7241893696034702	0.5684719297569245
id-1293_gender-F_age-31	2	4	2	7	18	id-1293_gender-F_age-31	valence	-0.33968086303556083	0.5684719297569245
id-1279_gender-F_age-19	2	4	2	7	19	id-1279_gender-F_age-19	arousal	0.5706536195113967	0.5101970157256801
id-1279_gender-F_age-19	2	4	2	7	19	id-1279_gender-F_age-19	valence	0.1630468142570692	0.5101970157256801
id-1290_gender-F_age-23	2	4	2	7	20	id-1290_gender-F_age-23	arousal	0.2635821193272496	0.6435916460604858
id-1290_gender-F_age-23	2	4	2	7	20	id-1290_gender-F_age-23	valence	-0.05978383189425871	0.6435916460604858
id-1345_gender-M_age-18	2	4	2	7	21	id-1345_gender-M_age-18	arousal	0.12906849756516753	0.7269143137955325
id-1345_gender-M_age-18	2	4	2	7	21	id-1345_gender-M_age-18	valence	-0.19837362401276756	0.7269143137955325
id-1309_gender-M_age-22	2	4	2	7	22	id-1309_gender-M_age-22	arousal	0.35461659062077994	0.7851877185439662
id-1309_gender-M_age-22	2	4	2	7	22	id-1309_gender-M_age-22	valence	-0.21196085853419	0.7851877185439662
id-1285_gender-F_age-19	2	4	2	7	23	id-1285_gender-F_age-19	arousal	0.45108595572287924	0.7020887265034617
id-1285_gender-F_age-19	2	4	2	7	23	id-1285_gender-F_age-19	valence	-0.1250025575970864	0.7020887265034617
id-1306_gender-F_age-21	2	4	2	7	24	id-1306_gender-F_age-21	arousal	0.3899434003764783	0.4937108190206345
id-1306_gender-F_age-21	2	4	2	7	24	id-1306_gender-F_age-21	valence	0.01630468142570692	0.4937108190206345
id-1294_gender-F_age-26	2	4	2	7	25	id-1294_gender-F_age-26	arousal	0.6426659624749356	0.6520291400229326
id-1294_gender-F_age-26	2	4	2	7	25	id-1294_gender-F_age-26	valence	0.2472876682898883	0.6520291400229326
id-1341_gender-M_age-19	2	4	2	7	26	id-1341_gender-M_age-19	arousal	0.5394029801121251	0.9021293563937434
id-1341_gender-M_age-19	2	4	2	7	26	id-1341_gender-M_age-19	valence	0.3369634161312764	0.9021293563937434
id-1366_gender-F_age-24	2	4	2	7	27	id-1366_gender-F_age-24	arousal	0.360051484429349	0.7104015537161104
id-1366_gender-F_age-24	2	4	2	7	27	id-1366_gender-F_age-24	valence	0.11413276997994845	0.7104015537161104
id-1273_gender-F_age-20	2	4	2	7	28	id-1273_gender-F_age-20	arousal	0.45108595572287924	0.7687211425145506
id-1273_gender-F_age-20	2	4	2	7	28	id-1273_gender-F_age-20	valence	0.418486823259811	0.7687211425145506
id-1291_gender-F_age-24	2	4	2	7	29	id-1291_gender-F_age-24	arousal	0.44293361501002576	0.6436170020097052
id-1291_gender-F_age-24	2	4	2	7	29	id-1291_gender-F_age-24	valence	-0.07608851331996565	0.6436170020097052
id-1367_gender-M_age-20	2	4	2	7	30	id-1367_gender-M_age-20	arousal	0.30434382289151696	0.7686803918822989
id-1367_gender-M_age-20	2	4	2	7	30	id-1367_gender-M_age-20	valence	0.26902724352416424	0.7686803918822989
id-1355_gender-F_age-19	2	4	2	7	31	id-1355_gender-F_age-19	arousal	0.21602679850227113	0.7602833466953598
id-1355_gender-F_age-19	2	4	2	7	31	id-1355_gender-F_age-19	valence	-0.2500051151941728	0.7602833466953598
id-1310_gender-F_age-28	2	4	2	7	32	id-1310_gender-F_age-28	arousal	0.6073391527192372	0.9856470234535664
id-1310_gender-F_age-28	2	4	2	7	32	id-1310_gender-F_age-28	valence	-0.14130723902279332	0.9856470234535664
id-1358_gender-F_age-32	2	4	2	7	33	id-1358_gender-F_age-32	arousal	0.5801646836763924	4.26076963757896
id-1358_gender-F_age-32	2	4	2	7	33	id-1358_gender-F_age-32	valence	-0.1440246859270778	4.26076963757896
id-1318_gender-M_age-35	2	4	2	7	34	id-1318_gender-M_age-35	arousal	0.5339680863035561	0.7685714216722772
id-1318_gender-M_age-35	2	4	2	7	34	id-1318_gender-M_age-35	valence	-0.4809881020583541	0.7685714216722772
id-1342_gender-M_age-19	2	4	2	7	35	id-1342_gender-M_age-19	arousal	0.6752753253263495	0.7352211038769383
id-1342_gender-M_age-19	2	4	2	7	35	id-1342_gender-M_age-19	valence	-0.2717446904284487	0.7352211038769383
id-1260_gender-F_age-22	2	4	2	7	36	id-1260_gender-F_age-22	arousal	0.11683998649588734	0.5603154642312802
id-1260_gender-F_age-22	2	4	2	7	36	id-1260_gender-F_age-22	valence	0.05163149118140525	0.5603154642312802
id-1339_gender-F_age-30	2	4	2	7	37	id-1339_gender-F_age-30	arousal	0.17118892458157708	0.7353548263236007
id-1339_gender-F_age-30	2	4	2	7	37	id-1339_gender-F_age-30	valence	0.40761703564267293	0.7353548263236007
id-1264_gender-F_age-26	2	4	2	7	38	id-1264_gender-F_age-26	arousal	0.22010296885869785	0.7852655975311791
id-1264_gender-F_age-26	2	4	2	7	38	id-1264_gender-F_age-26	valence	0.0027174469042844872	0.7852655975311791
id-1315_gender-M_age-16	2	4	2	7	39	id-1315_gender-M_age-16	arousal	0.5692948960592544	0.8686902927775009
id-1315_gender-M_age-16	2	4	2	7	39	id-1315_gender-M_age-16	valence	-0.11141532307566396	0.8686902927775009
id-1347_gender-F_age-27	2	4	2	7	40	id-1347_gender-F_age-27	arousal	0.20379828743299094	0.6604615024243685
id-1347_gender-F_age-27	2	4	2	7	40	id-1347_gender-F_age-27	valence	-0.2880493718541556	0.6604615024243685
id-1370_gender-M_age-19	2	4	2	7	41	id-1370_gender-M_age-19	arousal	0.544837873920694	0.8353194487381188
id-1370_gender-M_age-19	2	4	2	7	41	id-1370_gender-M_age-19	valence	0.40761703564267293	0.8353194487381188
id-1378_gender-F_age-19	2	4	2	7	42	id-1378_gender-F_age-19	arousal	0.2622233958751074	0.985296869868762
id-1378_gender-F_age-19	2	4	2	7	42	id-1378_gender-F_age-19	valence	0.3559855444612677	0.985296869868762
id-1376_gender-F_age-19	2	4	2	7	43	id-1376_gender-F_age-19	arousal	0.45244467917502146	0.7436685591064816
id-1376_gender-F_age-19	2	4	2	7	43	id-1376_gender-F_age-19	valence	0.17663404877849165	0.7436685591064816
id-1380_gender-F_age-21	2	4	2	7	44	id-1380_gender-F_age-21	arousal	0.29890892908294797	0.7687166146661184
id-1380_gender-F_age-21	2	4	2	7	44	id-1380_gender-F_age-21	valence	0.04619659737283628	0.7687166146661184
id-1335_gender-M_age-23	2	4	2	7	45	id-1335_gender-M_age-23	arousal	0.45380340262716373	0.8603056237079727
id-1335_gender-M_age-23	2	4	2	7	45	id-1335_gender-M_age-23	valence	0.0842408540328191	0.8603056237079727
id-1307_gender-F_age-22	2	4	2	7	46	id-1307_gender-F_age-22	arousal	0.2771693538486721	0.7518241190618937
id-1307_gender-F_age-22	2	4	2	7	46	id-1307_gender-F_age-22	valence	-0.1440246859270778	0.7518241190618937
id-1377_gender-M_age-20	2	4	2	7	47	id-1377_gender-M_age-20	arousal	0.5489140442771208	0.6269834993136101
id-1377_gender-M_age-20	2	4	2	7	47	id-1377_gender-M_age-20	valence	0.09239319474567256	0.6269834993136101
id-1270_gender-F_age-30	2	4	2	7	48	id-1270_gender-F_age-30	arousal	0.2336902033801203	0.6604361464751491
id-1270_gender-F_age-30	2	4	2	7	48	id-1270_gender-F_age-30	valence	-0.07880596022425011	0.6604361464751491
id-1373_gender-F_age-30	2	4	2	7	49	id-1373_gender-F_age-30	arousal	0.30841999324794367	0.9606466612258372
id-1373_gender-F_age-30	2	4	2	7	49	id-1373_gender-F_age-30	valence	0.03260936285141384	0.9606466612258372
id-1280_gender-M_age-18	2	4	2	7	50	id-1280_gender-M_age-18	arousal	0.7404940510291771	0.7604496696476417
id-1280_gender-M_age-18	2	4	2	7	50	id-1280_gender-M_age-18	valence	-0.5190323587183371	0.7604496696476417
